time,s	strain,%	stress,MPa	stressDrop,MPa	strainDropLength
3702.0	17.68323	328.09375	0.33124	0.00393
15678.59863	58.40649	428.11249	0.33124	0.00401
4431.0	20.80681	353.46249	0.33124	0.00262
3249.39941	16.22075	312.98749	0.33124	0.00401
7294.7998	31.29869	413.54999	0.33124	0.00393
2515.39941	12.68513	277.6875	0.33124	0.00131
2219.39941	11.87531	267.54999	0.33124	0.0027
15667.20019	58.33053	431.61874	0.33124	0.00539
10269.59863	40.56962	444.96875	0.33124	0.00662
15611.39941	57.95854	443.71875	0.33124	0.00539
15634.59863	58.11324	439.58749	0.33124	0.00401
13520.39941	50.22101	457.48749	0.33124	0.0027
336.0	2.23852	116.25	0.33125	0.00132
88.0	0.58535	72.89375	0.33125	0.00131
65.19922	0.43334	68.1375	0.33125	0.00401
93.79981	0.62403	74.1875	0.33125	0.00131
219.7998	1.46395	98.85	0.33125	0.00262
334.59961	2.22914	117.125	0.33125	0.00131
326.39941	2.17447	115.1625	0.33125	0.0027
322.0	2.14518	114.4125	0.33125	0.00401
571.59961	3.3557	139.95	0.33126	0.00262
67.0	0.44534	68.18125	0.33126	0.00269
514.19922	2.97303	131.39375	0.33126	0.00139
1636.59961	8.99105	230.28751	0.33126	0.00263
570.19922	3.34632	139.65625	0.33126	0.0014
359.59961	2.39575	120.3375	0.33126	0.00409
1686.59961	9.32437	234.79375	0.33126	0.00262
610.39941	3.61436	145.95625	0.33126	0.00131
44.0	0.29202	63.13125	0.33126	0.0027
674.7998	4.04362	152.55	0.33126	0.00262
3307.39941	16.60734	316.91251	0.33128	0.0053
3305.19922	16.59265	317.53751	0.33128	0.00409
9662.79981	39.30035	441.38126	0.33128	0.004
11196.59863	43.9059	449.35001	0.33128	0.00669
15627.59863	58.06649	440.92499	0.3375	0.00677
102.59961	0.6827	76.31875	0.3375	0.00262
3928.19922	19.191	340.40625	0.3375	0.00401
12752.20019	48.11867	456.78125	0.3375	0.00668
3323.79981	16.71667	318.25	0.3375	0.00531
2729.19922	14.11033	292.46249	0.3375	0.00531
15653.20019	58.23719	435.375	0.3375	0.00401
15661.20019	58.29055	433.33124	0.3375	0.0053
395.39941	2.63442	125.975	0.3375	0.00131
2634.79981	13.48108	285.91251	0.3375	0.00261
5822.59961	26.06797	388.47501	0.3375	0.00401
467.59961	2.6624	125.18125	0.33751	0.0014
60.39941	0.40136	66.93125	0.33751	0.0027
78.79981	0.52399	70.9375	0.33751	0.0054
271.0	1.80518	106.78125	0.33751	0.0027
600.39941	3.54761	142.70625	0.33752	0.00669
478.7998	2.73706	128.51875	0.33752	0.00269
6404.2002	27.72106	400.32501	0.33753	0.0053
3750.59961	18.00716	330.55624	0.375	0.00531
519.59961	3.00901	133.39999	0.375	0.0027
392.39941	2.61443	124.5125	0.375	0.00269
677.59961	4.06231	154.46875	0.375	0.00261
3384.79981	17.12326	321.16876	0.375	0.004
6556.59863	28.73698	401.90625	0.375	0.00262
3772.39941	18.15248	331.64374	0.375	0.0053
1464.19922	7.84189	214.55624	0.375	0.0013
3773.79981	18.16178	331.68124	0.375	0.00401
570.7998	3.35032	139.78125	0.375	0.00269
245.7998	1.63726	102.1875	0.375	0.00262
282.39941	1.88123	107.8625	0.375	0.00131
536.7998	3.12373	134.77499	0.375	0.00131
69.19922	0.46003	68.8875	0.375	0.00138
3919.39941	19.13234	340.81876	0.375	0.00539
178.19922	1.18662	91.13125	0.375	0.00131
801.7998	4.89016	167.325	0.375	0.0027
569.39941	3.34102	139.575	0.375	0.0027
4610.59961	22.00395	360.80624	0.375	0.0027
575.39941	3.381	139.28125	0.375	0.0014
75.39941	0.50139	70.05625	0.375	0.00262
5895.59961	26.55459	392.01874	0.375	0.004
160.7998	1.07059	88.04375	0.375	0.0014
10228.99902	40.29897	442.04999	0.375	0.00532
559.59961	3.27566	138.4875	0.375	0.0027
940.7998	5.17418	172.75	0.375	0.00132
1098.0	6.22209	188.51875	0.375	0.00262
5216.19922	24.1182	375.91251	0.375	0.0027
649.39941	3.87431	150.33749	0.375	0.00263
521.19922	3.0197	133.44376	0.375	0.0014
973.0	5.38878	177.13126	0.375	0.00399
53.0	0.35208	65.1375	0.375	0.00269
9726.39941	39.72431	441.38126	0.375	0.0053
529.0	3.07168	134.39999	0.375	0.00269
15642.59863	58.16653	437.875	0.375	0.00669
3951.19922	19.34432	340.81876	0.375	0.00401
5948.39941	26.90659	393.23126	0.375	0.00261
4373.39941	20.42283	352.16876	0.375	0.00799
74.19922	0.4934	70.26875	0.375	0.00262
397.19922	2.64641	124.6375	0.375	0.0014
3314.19922	16.65271	316.58124	0.38123	0.00392
597.59961	3.52901	143.25	0.38126	0.00131
45.0	0.29872	63.34375	0.38126	0.0027
290.0	1.93189	109.74375	0.38126	0.00262
243.0	1.61857	102.14375	0.4125	0.00131
276.0	1.83855	108.06875	0.4125	0.0027
325.7998	2.17047	114.7875	0.4125	0.0014
550.59961	3.21569	136.69376	0.41251	0.00269
655.59961	3.9156	150.88126	0.41251	0.00401
3075.19922	15.05951	302.30624	0.41251	0.00399
1160.0	6.63536	196.3625	0.41251	0.00131
3859.59961	18.73375	335.8125	0.41251	0.00531
1522.39941	8.22979	219.8125	0.41251	0.00139
9727.39941	39.731	441.08749	0.41251	0.00939
1731.79981	9.62561	239.13126	0.41251	0.004
15705.79981	58.58787	417.51251	0.41251	0.00393
15687.79981	58.46785	424.77499	0.41873	0.00532
2843.79981	14.87421	300.80624	0.41873	0.00399
3916.59961	19.11365	338.86249	0.41873	0.00271
210.39941	1.40121	96.85	0.41875	0.0014
506.19922	2.91975	131.77499	0.41875	0.00269
1199.0	6.89532	200.95625	0.41875	0.00261
518.7998	3.00371	133.10625	0.41875	0.0027
228.0	1.51854	99.475	0.41875	0.0014
1033.0	5.78875	181.96875	0.41875	0.0013
140.39941	0.93466	83.7875	0.41875	0.00269
512.39941	2.96104	131.35625	0.41875	0.00138
713.59961	4.30219	157.6875	0.41875	0.00139
651.59961	3.88892	151.425	0.41875	0.00139
276.7998	1.84386	107.8625	0.41876	0.0013
382.0	2.54515	123.0125	0.41876	0.00132
351.0	2.33848	118.8375	0.41876	0.00131
380.39941	2.53446	122.84375	0.41876	0.00261
313.7998	2.09051	113.20625	0.41876	0.00131
83.19922	0.55337	71.9375	0.41876	0.00262
348.59961	2.32248	118.2125	0.41876	0.00131
211.0	1.40521	96.7625	0.41876	0.00269
8058.99902	33.90439	424.31876	0.41877	0.00801
3127.19922	15.40612	307.23126	0.41877	0.00539
479.7998	2.74375	128.47501	0.41877	0.00132
5242.19922	24.29159	377.875	0.41877	0.008
4338.7998	20.19216	349.29376	0.41877	0.0053
6608.7998	29.08489	405.28751	0.41877	0.004
4507.7998	21.31872	356.21875	0.41877	0.00532
5816.59961	26.02799	387.97501	0.41877	0.00799
5986.39941	27.15986	395.69376	0.41877	0.0053
1473.39941	7.90317	213.97501	0.41877	0.00269
6607.99902	29.07959	405.70624	0.45624	0.00401
2749.59961	14.24626	294.33749	0.45624	0.00271
3077.59961	15.0755	302.68124	0.45624	0.00269
580.59961	3.41568	141.49374	0.45624	0.00131
2557.0	12.96247	277.8125	0.45624	0.00131
3197.19922	15.87275	310.02499	0.45624	0.00531
5985.0	27.15047	396.14999	0.45624	0.00809
12798.20019	48.42538	456.98749	0.45624	0.00662
258.59961	1.72261	105.10625	0.45625	0.00262
985.39941	5.47151	178.75626	0.45626	0.00261
689.39941	4.14088	155.6375	0.45626	0.0027
556.39941	3.25437	138.65625	0.45626	0.00269
2031.39941	10.62211	252.7375	0.45626	0.00271
722.19922	4.35955	158.60001	0.45626	0.0027
553.59961	3.23568	138.03125	0.45626	0.00132
624.7998	3.71031	147.16875	0.45626	0.00131
15690.99902	58.48923	423.60626	0.45628	0.00662
5746.0	25.55744	386.63751	0.45628	0.00662
8028.7998	33.7031	424.98126	0.45628	0.00799
15681.59863	58.42656	426.98749	0.4625	0.00661
309.0	2.05853	112.70625	0.4625	0.00269
10227.79981	40.29097	442.46875	0.4625	0.00662
608.7998	3.60367	144.91875	0.4625	0.0013
3381.39941	17.10066	320.96249	0.4625	0.00391
3915.19922	19.10435	338.44376	0.4625	0.0027
64.39941	0.42804	67.85	0.4625	0.0014
572.39941	3.36101	140.24374	0.4625	0.0014
160.19922	1.06659	87.54375	0.46251	0.0014
337.59961	2.24913	116.04375	0.46251	0.00269
1415.59961	7.51788	208.925	0.46252	0.00401
530.7998	3.08375	134.19376	0.46252	0.00401
15675.20019	58.38381	429.20001	0.46253	0.00678
3383.19922	17.11257	321.04376	0.46253	0.00269
485.39941	2.78112	129.26875	0.5	0.00261
331.0	2.20515	116.25	0.5	0.00269
487.59961	2.79573	129.3125	0.5	0.0027
366.39941	2.44112	121.75625	0.5	0.00269
548.39941	3.20109	137.2375	0.5	0.00261
293.7998	1.95719	110.49375	0.5	0.00131
150.7998	1.00393	86.5	0.5	0.0027
474.59961	2.70907	127.80625	0.5	0.0027
4581.0	21.80665	360.80624	0.5	0.004
508.0	2.93174	131.23125	0.5	0.00401
341.0	2.27181	117.54375	0.5	0.0014
740.0	4.47819	161.23125	0.5	0.0027
15670.79981	58.35451	430.53125	0.5	0.00801
3379.59961	17.08858	321.04376	0.5	0.00401
520.39941	3.0144	133.64999	0.5	0.0013
3263.79981	16.3167	314.45001	0.5	0.00531
533.39941	3.10105	135.31876	0.5	0.00262
257.7998	1.71722	105.44375	0.5	0.0027
499.59961	2.87577	131.6875	0.5	0.00661
308.39941	2.05453	113.1625	0.5	0.00261
506.7998	2.92375	131.48125	0.5	0.00401
71.59961	0.47602	69.43125	0.5	0.00401
15695.39941	58.51852	421.98126	0.5	0.0053
9574.59863	38.71246	441.29999	0.5	0.00532
13519.39941	50.21432	457.98749	0.5	0.00539
566.39941	3.32103	140.28751	0.50626	0.00131
3857.59961	18.72037	335.64999	0.50626	0.00401
9772.59863	40.03232	441.84375	0.50626	0.00662
15677.20019	58.39719	428.57501	0.50626	0.008
476.7998	2.72376	128.18124	0.5375	0.0054
194.19922	1.29326	94.3	0.5375	0.0014
15692.20019	58.49714	423.1875	0.53751	0.008
4476.19922	21.10805	355.00626	0.53751	0.0067
4684.39941	22.49588	366.14999	0.54373	0.004
5305.0	24.71017	379.96249	0.54373	0.0066
15693.59863	58.50653	422.64999	0.54373	0.00799
1072.79981	6.05409	187.5625	0.54375	0.00131
527.19922	3.05976	133.89999	0.54375	0.00124
1162.0	6.64866	197.24374	0.54375	0.00271
608.0	3.59828	144.83125	0.54375	0.0027
674.19922	4.03962	152.34375	0.54375	0.00132
111.79981	0.74397	78.19375	0.54375	0.00269
577.39941	3.39438	139.2	0.54375	0.00262
339.39941	2.26112	116.125	0.54376	0.0027
163.7998	1.09058	88.79375	0.54376	0.0014
470.7998	2.6837	127.18125	0.54376	0.00269
338.19922	2.25313	116.04375	0.54376	0.00269
383.7998	2.55707	124.43125	0.54376	0.00269
194.7998	1.29726	94.2625	0.54376	0.00269
234.59961	1.56252	101.26875	0.54376	0.0067
774.39941	4.70755	164.31876	0.54377	0.0013
15686.39941	58.45855	425.31876	0.54377	0.00799
10212.99902	40.19233	442.34375	0.54377	0.01061
4038.39941	19.92559	345.53751	0.54377	0.008
7435.59863	32.23727	415.88751	0.54377	0.00399
3699.59961	17.66716	328.21875	0.58124	0.0067
3262.0	16.30471	314.53125	0.58124	0.0053
640.0	3.81165	149.33749	0.58124	0.00131
4018.79981	19.79496	344.74374	0.58124	0.00401
187.19922	1.24659	93.175	0.58125	0.00262
179.7998	1.19731	91.63125	0.58125	0.00262
224.59961	1.49594	99.475	0.58125	0.00262
394.39941	2.62773	124.84375	0.58125	0.00138
62.59961	0.41605	67.3875	0.58125	0.00262
628.0	3.73161	147.16875	0.58126	0.0027
1227.19922	7.08331	203.875	0.58126	0.00261
317.59961	2.11581	113.99375	0.58126	0.00138
1523.0	8.23378	219.9375	0.58126	0.00401
939.39941	5.16488	173.33125	0.58126	0.00132
568.7998	3.33702	139.7	0.58126	0.00132
517.39941	2.99441	132.6875	0.58126	0.00131
5692.59961	25.20144	384.63126	0.58128	0.00531
3220.39941	16.02737	311.15625	0.5875	0.004
6601.7998	29.03822	405.25	0.5875	0.00801
2197.59961	11.72999	266.17499	0.5875	0.004
667.59961	3.99556	151.71875	0.5875	0.0014
3376.0	17.06459	320.96249	0.5875	0.00401
329.39941	2.19446	116.29375	0.58751	0.0027
482.0	2.75844	128.64375	0.58752	0.00531
811.0	4.95143	169.41251	0.58752	0.0027
4483.19922	21.15472	355.88751	0.58753	0.00539
480.59961	2.74914	128.55624	0.62499	0.00131
3175.39941	15.72743	309.77499	0.625	0.004
3259.59961	16.28872	314.20001	0.625	0.0053
225.19922	1.49994	98.89375	0.625	0.00262
7462.59863	32.41726	419.39374	0.625	0.01061
564.39941	3.30765	139.2	0.625	0.00138
4014.39941	19.76559	344.45001	0.625	0.00531
1007.0	5.61544	180.925	0.625	0.00139
7292.39941	31.2827	414.29999	0.625	0.01201
85.59961	0.56936	72.5625	0.625	0.00132
91.19922	0.60673	74.0625	0.625	0.00262
557.19922	3.25967	138.28125	0.625	0.00409
305.7998	2.03715	111.9125	0.625	0.00139
7422.7998	32.15192	416.51251	0.625	0.0067
361.19922	2.40644	119.54375	0.625	0.00132
3374.19922	17.0526	320.96249	0.63126	0.004
5022.19922	22.82511	370.20001	0.63126	0.00531
12767.39941	48.22001	457.70001	0.63126	0.00669
50.7998	0.33739	64.8875	0.63126	0.00269
1466.0	7.8538	214.1375	0.66249	0.00401
237.59961	1.58259	101.89375	0.6625	0.00132
3770.39941	18.1391	331.68124	0.66251	0.0067
5169.19922	23.80497	374.45001	0.66251	0.004
7301.59863	31.34406	413.63126	0.66251	0.00393
670.7998	4.01694	151.38126	0.66251	0.0027
3377.79981	17.07658	321.08749	0.66873	0.00401
639.0	3.80496	148.46249	0.66875	0.0014
719.19922	4.33956	158.8125	0.66875	0.00132
1109.79981	6.30075	191.52499	0.66875	0.00131
803.39941	4.90085	167.95	0.66875	0.00261
646.7998	3.85694	149.425	0.66875	0.00139
535.19922	3.11305	136.15625	0.66875	0.0027
1566.79981	8.52581	224.2375	0.66875	0.00131
312.7998	2.08382	113.4125	0.66875	0.00401
672.39941	4.02763	151.675	0.66875	0.00261
99.0	0.65871	75.81875	0.66875	0.0013
538.59961	3.13565	136.1125	0.66875	0.00269
701.7998	4.22354	155.1375	0.66875	0.00139
1241.79981	7.18057	203.91875	0.66875	0.00139
999.19922	5.56347	178.675	0.66875	0.0027
132.59961	0.8826	82.61875	0.66876	0.0014
241.7998	1.61058	101.98125	0.66876	0.00131
349.39941	2.32779	119.2125	0.66876	0.0027
333.59961	2.22253	117.0	0.66876	0.00262
299.59961	1.99586	110.99375	0.66876	0.0027
5900.7998	26.58927	392.48126	0.66877	0.0093
6428.7998	27.88506	399.78125	0.66877	0.0107
15689.59863	58.47985	424.23126	0.66877	0.00799
3247.39941	16.20737	313.03125	0.66877	0.0053
645.0	3.84494	148.63126	0.66877	0.0014
3300.0	16.55806	316.53751	0.66877	0.00391
4994.59961	22.64111	367.64999	0.70624	0.008
5063.0	23.09706	369.73749	0.70624	0.00401
584.39941	3.44105	141.99374	0.70624	0.00131
5279.59961	24.54086	379.0	0.70624	0.00931
1265.19922	7.33658	208.21249	0.70624	0.00401
3372.59961	17.04199	321.0	0.70624	0.00262
208.19922	1.3866	96.21875	0.70625	0.00531
386.0	2.57183	125.0125	0.70625	0.00132
165.19922	1.09997	89.125	0.70625	0.0027
574.59961	3.37561	139.825	0.70626	0.00279
781.39941	4.75414	164.94376	0.70626	0.0027
137.19922	0.91328	83.36875	0.70626	0.00269
1062.39941	5.98473	186.60001	0.70626	0.0027
666.7998	3.99026	151.675	0.70626	0.00269
718.19922	4.33287	158.47501	0.70626	0.0027
4569.19922	21.72792	359.76251	0.70628	0.00677
6586.2002	28.93427	405.91251	0.70628	0.008
4003.79981	19.69493	345.53751	0.7125	0.00539
596.0	3.51832	143.25	0.7125	0.00131
3348.59961	16.88199	319.0	0.7125	0.004
10313.20019	40.86017	445.68124	0.7125	0.0094
369.7998	2.4638	121.925	0.7125	0.00132
3768.59961	18.1271	331.64374	0.7125	0.0067
4031.0	19.87631	345.78751	0.7125	0.00401
676.39941	4.05423	153.93124	0.7125	0.0027
15672.79981	58.3679	429.86874	0.7125	0.012
3350.39941	16.89398	319.125	0.7125	0.00523
2836.19922	14.82354	298.93124	0.7125	0.00401
288.19922	1.91982	109.99375	0.71251	0.00269
469.39941	2.67448	126.18125	0.71251	0.00392
191.59961	1.27596	94.34375	0.71251	0.0027
990.19922	5.5035	177.63126	0.71252	0.0027
524.7998	3.04369	133.94376	0.71252	0.0014
694.19922	4.17286	155.60001	0.71252	0.0027
3855.59961	18.70707	335.60626	0.71253	0.004
3352.19922	16.90597	319.29376	0.71253	0.00532
585.19922	3.44636	142.36874	0.75	0.00131
1000.19922	5.57008	178.8	0.75	0.00139
124.0	0.82532	80.78125	0.75	0.00269
1517.0	8.1938	220.89999	0.75	0.00132
3193.59961	15.84876	309.44376	0.75	0.004
629.19922	3.7396	148.29375	0.75	0.00271
583.59961	3.43567	142.03751	0.75	0.00261
782.39941	4.76083	166.15625	0.75	0.00269
12766.39941	48.21332	458.36249	0.75	0.00538
582.7998	3.43036	141.99374	0.75	0.00132
207.7998	1.38391	96.93125	0.75	0.00131
516.39941	2.98772	132.3125	0.75	0.00262
281.7998	1.87723	108.06875	0.75	0.00131
525.59961	3.04908	134.14999	0.75	0.00261
8661.20019	35.31099	432.20001	0.75	0.008
1929.0	9.9395	243.43124	0.75	0.004
5677.7998	25.1028	384.96875	0.75	0.00931
539.19922	3.13973	135.52499	0.75	0.00131
9576.79981	38.72715	441.42499	0.75	0.008
387.59961	2.58244	124.5125	0.75	0.00269
680.59961	4.0823	154.30624	0.75	0.00261
2841.19922	14.85691	299.46875	0.75	0.00401
118.19922	0.78665	79.53125	0.75	0.004
3222.19922	16.03937	311.31876	0.75	0.00399
620.39941	3.68094	146.83749	0.75	0.00138
15683.59863	58.43986	426.31876	0.75	0.01069
3195.39941	15.86076	309.77499	0.75	0.0053
202.59961	1.34923	96.43125	0.75	0.0054
1001.0	5.57546	178.88126	0.75	0.00132
546.7998	3.1904	136.7375	0.75	0.00131
791.39941	4.8208	168.45	0.75	0.00139
1710.59961	9.48429	236.71249	0.75	0.0014
560.7998	3.28366	139.90625	0.75	0.0027
15702.20019	58.56381	419.14374	0.75	0.00939
15703.79981	58.57449	418.43124	0.75	0.0094
614.7998	3.64365	145.16875	0.75624	0.00131
1035.59961	5.80605	182.80624	0.75624	0.00409
145.0	0.96534	85.125	0.75625	0.00262
8222.79981	34.99628	430.49374	0.75626	0.01331
818.19922	4.99949	169.66251	0.75626	0.00132
92.19922	0.61334	74.025	0.75626	0.00269
2838.0	14.83553	299.18124	0.75626	0.004
940.19922	5.17019	173.53751	0.78751	0.0027
2860.39941	14.98485	301.13751	0.78751	0.004
622.39941	3.69432	147.125	0.78751	0.0027
136.39941	0.90797	83.7875	0.79375	0.00262
547.59961	3.1957	137.1125	0.79375	0.00269
690.59961	4.14888	156.26875	0.79375	0.0027
515.59961	2.98241	131.98125	0.79375	0.00262
619.19922	3.67294	146.08749	0.79375	0.00269
1638.39941	9.00305	231.5	0.79375	0.00269
1420.79981	7.55256	211.80624	0.79375	0.0027
245.19922	1.63326	102.525	0.79376	0.00132
374.7998	2.49709	121.96875	0.79376	0.00139
369.0	2.4585	122.3	0.79376	0.00132
343.7998	2.2905	118.41875	0.79376	0.0013
144.0	0.95864	84.83125	0.79376	0.0027
127.19922	0.8467	81.45	0.79376	0.00262
81.0	0.53868	71.6875	0.79376	0.00269
2176.79981	11.59137	264.38126	0.79377	0.00262
1001.79981	5.58076	179.13126	0.79377	0.0014
3218.59961	16.01538	311.06876	0.79377	0.00408
2146.0	11.38599	262.0	0.79377	0.00409
2159.39941	11.47534	262.875	0.79377	0.00401
586.7998	3.45704	142.28751	0.79377	0.00262
15191.99902	55.1629	460.66251	0.79377	0.01208
2574.59961	13.0798	281.31876	0.79377	0.00391
587.7998	3.46365	143.03751	0.79377	0.00132
642.39941	3.82756	148.25626	0.79377	0.00277
7871.39941	32.65389	422.4375	0.83124	0.00799
707.19922	4.2596	157.05624	0.83124	0.00132
12105.99902	46.77359	455.14999	0.83124	0.01201
374.19922	2.4931	122.3	0.83125	0.00131
335.19922	2.23314	117.0	0.83125	0.00401
149.7998	0.99724	86.33125	0.83125	0.00269
1228.19922	7.08992	203.83125	0.83126	0.00139
568.0	3.33172	139.65625	0.83126	0.00131
6566.99902	28.80625	403.20001	0.83128	0.0054
6503.2002	28.38099	401.82501	0.83128	0.00799
4601.7998	21.94528	361.22501	0.83128	0.00401
4012.0	19.7496	344.70001	0.83128	0.00668
1150.0	6.5687	194.78125	0.8375	0.00401
515.0	2.97842	131.85625	0.8375	0.00131
606.39941	3.58768	144.875	0.8375	0.00261
573.0	3.36501	139.99374	0.8375	0.0027
367.39941	2.44781	121.925	0.8375	0.00261
2572.79981	13.0678	281.23749	0.8375	0.00392
2785.59961	14.48623	295.92499	0.8375	0.00269
518.19922	2.99971	133.27499	0.8375	0.00132
175.0	1.16532	91.00625	0.8375	0.00401
729.7998	4.41022	158.8125	0.8375	0.0027
217.39941	1.44796	98.51875	0.8375	0.00532
6571.2002	28.83424	402.74374	0.8375	0.00538
342.19922	2.27981	117.9625	0.83751	0.0027
1189.79981	6.83396	199.28751	0.83752	0.004
702.7998	4.23023	156.39375	0.83752	0.00131
356.7998	2.37715	119.29375	0.875	0.00132
754.59961	4.57553	162.23125	0.875	0.00132
255.19922	1.69992	104.73125	0.875	0.00131
350.39941	2.33448	119.29375	0.875	0.00269
732.19922	4.42621	160.39375	0.875	0.00132
298.39941	1.98787	110.74375	0.875	0.00131
101.0	0.67201	76.31875	0.875	0.00269
260.59961	1.73591	105.19375	0.875	0.00269
607.39941	3.59429	145.0	0.875	0.00139
697.0	4.19163	154.8875	0.875	0.00261
779.0	4.73815	164.19376	0.875	0.00139
396.59961	2.64241	124.8875	0.875	0.0014
9608.59863	38.93913	443.79999	0.875	0.00931
977.39941	5.41807	177.63126	0.875	0.00277
123.19922	0.82002	81.075	0.875	0.00262
998.39941	5.55816	178.88126	0.875	0.00261
129.19922	0.86	81.86875	0.875	0.0013
693.39941	4.16756	155.43124	0.875	0.0027
86.19922	0.57336	72.8125	0.875	0.0013
815.0	4.97811	170.325	0.875	0.0027
673.19922	4.03293	152.05	0.875	0.00131
820.59961	5.01548	169.91251	0.88126	0.0027
6564.7998	28.79165	402.66251	0.88126	0.0053
971.7998	5.38078	177.00626	0.88126	0.0027
4364.39941	20.36285	351.38126	0.88126	0.00531
682.7998	4.0969	155.8875	0.91249	0.00409
9597.79981	38.86709	444.68124	0.91873	0.012
9731.59863	39.75898	441.29999	0.91873	0.00671
5336.19922	24.91815	382.54999	0.91873	0.012
108.79981	0.72406	77.81875	0.91875	0.00262
641.39941	3.82095	148.46249	0.91875	0.00271
1157.39941	6.61798	195.6125	0.91875	0.0027
727.0	4.39162	159.26875	0.91875	0.00131
1106.79981	6.28076	190.4375	0.91875	0.00131
1285.59961	7.47251	210.46875	0.91875	0.0027
643.19922	3.83295	148.29375	0.91875	0.0027
1016.39941	5.67811	181.6375	0.91875	0.0013
1025.59961	5.73947	182.93124	0.91875	0.00131
1148.79981	6.56071	194.53125	0.91875	0.00261
293.0	1.95188	110.825	0.91876	0.00262
239.0	1.59189	102.4	0.91876	0.0027
289.19922	1.92651	110.40625	0.91876	0.0027
192.19922	1.27996	93.71875	0.91876	0.00531
2833.0	14.80224	298.63751	0.91877	0.00401
759.0	4.60482	164.06876	0.91877	0.00139
2618.59961	13.37305	285.03125	0.91877	0.008
2759.59961	14.31292	293.88126	0.91877	0.004
6446.2002	28.001	400.70001	0.91877	0.0107
7299.2002	31.32799	413.09375	0.91877	0.00669
1994.79981	10.37815	249.81876	0.91877	0.00269
700.7998	4.21685	154.97501	0.91877	0.0027
2687.39941	13.83168	289.28751	0.91877	0.00531
3948.79981	19.32833	341.03125	0.91877	0.00799
5281.7998	24.55555	378.375	0.91877	0.00399
4336.59961	20.17755	349.375	0.91877	0.00532
3245.39941	16.19407	313.15625	0.95624	0.0053
773.59961	4.70216	164.89999	0.95624	0.0027
1266.59961	7.34588	208.46249	0.95624	0.0027
10450.39941	41.77476	447.18124	0.95624	0.00939
590.59961	3.48234	142.24374	0.95624	0.00269
3226.59961	16.06874	312.86249	0.95624	0.00531
2773.39941	14.40496	295.33749	0.95624	0.004
698.0	4.19816	155.80624	0.95624	0.00277
3122.0	15.37152	306.5625	0.95624	0.004
6485.39941	28.26235	403.11874	0.95624	0.00669
287.39941	1.91452	109.3625	0.95625	0.00131
391.0	2.60512	124.59375	0.95625	0.0027
670.19922	4.01294	151.63126	0.95626	0.00131
2047.59961	10.73006	253.3625	0.95626	0.00271
473.59961	2.70238	126.80625	0.95626	0.0014
5016.19922	22.78504	369.69376	0.95628	0.00808
2862.39941	14.99815	301.63751	0.95628	0.00409
3938.0	19.25636	340.44376	0.95628	0.004
787.0	4.79151	166.825	0.9625	0.00132
2215.19922	11.84733	267.21875	0.9625	0.00262
615.59961	3.64895	145.5	0.9625	0.0027
2857.0	14.96216	300.80624	0.9625	0.0027
644.0	3.83833	148.33749	0.9625	0.00261
2104.79981	11.11143	256.99374	0.9625	0.00392
3216.79981	16.00338	311.03125	0.9625	0.00401
6573.99902	28.85292	403.91251	0.9625	0.00669
2762.79981	14.3343	294.13126	0.9625	0.004
9738.20019	39.80296	441.96875	0.9625	0.00801
130.7998	0.8706	82.24375	0.96251	0.0027
161.7998	1.07728	88.2125	0.96251	0.0027
2048.59961	10.73675	253.1125	0.96252	0.0027
1104.79981	6.26738	191.81876	0.96252	0.00269
980.59961	5.43953	178.88126	0.96252	0.00261
95.0	0.63202	75.23125	1.0	0.0027
2761.19922	14.32361	293.96249	1.0	0.004
3188.39941	15.81408	309.02499	1.0	0.004
2802.59961	14.59956	297.29999	1.0	0.0027
2764.39941	14.34491	294.33749	1.0	0.004
1607.0	8.79376	228.78751	1.0	0.00261
3370.59961	17.02861	321.0	1.0	0.004
1243.0	7.18857	204.625	1.0	0.00269
2616.79981	13.36105	283.98749	1.0	0.0027
549.19922	3.20639	137.28125	1.0	0.0027
12687.99902	47.69079	455.31876	1.0	0.01461
1270.19922	7.36995	207.33749	1.0	0.00261
1027.79981	5.75415	183.1375	1.0	0.00261
1061.19922	5.97674	185.72501	1.0	0.00269
717.39941	4.32757	158.10001	1.0	0.00131
3346.59961	16.8686	319.0	1.0	0.00539
526.39941	3.05438	134.39999	1.0	0.00269
550.0	3.21169	137.1125	1.0	0.00132
319.19922	2.12649	114.0375	1.0	0.0014
2689.19922	13.84368	289.78751	1.0	0.0053
307.39941	2.04784	112.45	1.0	0.00132
365.19922	2.43313	121.63125	1.0	0.00139
1569.0	8.5405	224.7	1.00624	0.00262
501.0	2.88507	131.52499	1.00624	0.00401
555.19922	3.24637	138.99374	1.00624	0.00401
787.7998	4.79681	166.95	1.00624	0.0027
273.39941	1.82125	107.65625	1.00625	0.00131
653.59961	3.9023	151.21875	1.00626	0.00262
5837.7998	26.16931	385.63751	1.00626	0.0027
2756.39941	14.29163	293.63126	1.00626	0.004
2839.59961	14.84622	299.18124	1.00626	0.004
2858.59961	14.97285	301.10001	1.00626	0.00401
2834.59961	14.81285	298.93124	1.00626	0.00401
662.39941	3.96097	151.50626	1.03751	0.00261
3192.0	15.83807	309.36249	1.04373	0.00269
4023.0	19.82287	345.61874	1.04373	0.00269
2855.39941	14.95156	300.68124	1.04373	0.00269
613.7998	3.63696	145.25	1.04375	0.00269
623.0	3.69832	146.58749	1.04375	0.0027
739.19922	4.47289	160.73125	1.04375	0.00131
804.59961	4.90884	168.86874	1.04375	0.00262
1570.0	8.54711	224.2375	1.04375	0.00131
768.7998	4.67018	164.39999	1.04375	0.0013
821.59961	5.02209	170.2	1.04375	0.00139
1002.79981	5.58746	179.425	1.04375	0.0013
302.39941	2.01447	111.575	1.04376	0.00408
330.19922	2.19985	116.66875	1.04376	0.00269
378.59961	2.52247	123.55	1.04376	0.00131
1185.59961	6.80598	198.78751	1.04377	0.00131
780.0	4.74484	165.69376	1.04377	0.0027
4028.79981	19.86154	345.53751	1.04377	0.00408
997.59961	5.55278	179.13126	1.04377	0.00269
2758.0	14.30224	293.75626	1.04377	0.00409
2632.79981	13.4677	285.40625	1.08124	0.00399
2766.19922	14.3569	294.46249	1.08124	0.00409
2831.39941	14.79155	298.59375	1.08124	0.004
3257.39941	16.27403	314.03125	1.08124	0.00531
2767.79981	14.36759	294.58749	1.08124	0.004
328.0	2.18516	115.95625	1.08125	0.00401
764.59961	4.64219	165.56876	1.08126	0.0027
543.59961	3.1691	136.19376	1.08126	0.00132
1222.19922	7.04994	203.20625	1.08126	0.00269
104.59961	0.69599	76.775	1.08126	0.00401
1619.59961	8.87772	230.16251	1.08126	0.00269
1555.39941	8.44976	223.56876	1.08126	0.00271
3213.39941	15.9807	310.81876	1.08128	0.00538
3224.0	16.05136	311.69376	1.08128	0.00409
8642.99902	35.18966	431.20001	1.08128	0.0066
1228.79981	7.09392	203.75	1.0875	0.00139
1676.59961	9.25762	234.21249	1.0875	0.00279
671.59961	4.02224	151.84375	1.0875	0.0027
4551.0	21.60667	359.22501	1.0875	0.0093
472.7998	2.69708	126.975	1.0875	0.00139
554.39941	3.24098	138.99374	1.0875	0.0014
633.19922	3.76628	148.21249	1.0875	0.00139
1224.39941	7.06463	203.04375	1.0875	0.00261
4367.59961	20.38415	352.21249	1.0875	0.00669
2741.39941	14.19159	293.08749	1.0875	0.00409
2739.59961	14.1796	292.83749	1.0875	0.004
1512.59961	8.16451	219.48125	1.0875	0.00262
164.59961	1.09597	89.3375	1.08751	0.0013
546.0	3.18509	136.7375	1.08752	0.00261
646.0	3.85163	149.675	1.08752	0.00131
1438.79981	7.6725	214.76875	1.08752	0.00269
996.59961	5.54609	178.88126	1.08752	0.00269
2260.0	12.14588	269.13751	1.08753	0.00269
2482.79981	12.46785	275.60626	1.08753	0.00399
2755.0	14.28225	293.58749	1.125	0.0027
191.0	1.27196	94.34375	1.125	0.00131
1195.19922	6.86995	200.66251	1.125	0.00269
599.0	3.53831	143.78751	1.125	0.00801
2769.59961	14.37959	294.88126	1.125	0.00399
348.0	2.31848	119.0875	1.125	0.00131
8724.59863	35.73356	434.20624	1.125	0.016
1245.59961	7.20595	205.29375	1.125	0.0027
2119.19922	11.20739	259.58124	1.125	0.00399
1015.39941	5.67142	181.46875	1.125	0.00269
2771.39941	14.39158	295.08749	1.125	0.00401
3419.59961	17.35523	324.88126	1.125	0.00401
529.7998	3.07706	134.81876	1.125	0.0027
988.59961	5.49281	179.08749	1.125	0.00269
4505.59961	21.30404	356.59375	1.125	0.00669
3215.19922	15.99269	310.98749	1.125	0.004
9579.20019	38.74306	441.50626	1.125	0.00669
660.59961	3.94897	152.55	1.125	0.0027
2479.19922	12.44386	273.64374	1.13123	0.004
626.7998	3.72361	147.08749	1.13124	0.00401
747.39941	4.52755	161.39999	1.13124	0.00263
1587.39941	8.66305	226.36874	1.13124	0.00409
5675.19922	25.08542	385.51251	1.13126	0.00799
635.59961	3.78228	148.25626	1.13126	0.00269
2631.0	13.4557	284.74374	1.13126	0.004
89.79981	0.59735	73.775	1.13126	0.0013
377.59961	2.51578	123.2625	1.13126	0.0027
3186.79981	15.80348	308.98126	1.16251	0.00392
4036.39941	19.91229	345.83124	1.16873	0.00662
5233.39941	24.23293	378.33124	1.16873	0.00668
4020.79981	19.80826	345.36874	1.16873	0.004
2571.0	13.05581	280.98749	1.16873	0.00401
3183.59961	15.7821	308.77499	1.16873	0.00262
3849.0	18.66309	335.77499	1.16873	0.00401
1003.59961	5.59284	179.71875	1.16875	0.00261
1158.59961	6.62598	196.575	1.16875	0.0054
1023.39941	5.72478	182.43124	1.16875	0.0027
1030.0	5.76876	183.55624	1.16875	0.00269
1024.59961	5.73277	182.93124	1.16875	0.00131
982.7998	5.45413	178.425	1.16875	0.00261
110.59961	0.73598	78.4875	1.16876	0.00262
2157.59961	11.46335	261.79376	1.16877	0.00131
3130.79981	15.4301	306.9375	1.16877	0.00401
2213.39941	11.83533	266.63126	1.16877	0.004
2282.0	12.29258	271.47501	1.16877	0.00262
1705.79981	9.45231	236.75626	1.16877	0.00269
2685.79981	13.821	289.0	1.16877	0.00399
2829.79981	14.78087	298.51251	1.16877	0.00408
2255.0	12.11259	270.01251	1.16877	0.00269
2236.19922	11.98726	268.59375	1.16877	0.0027
5105.59961	23.381	371.23749	1.20624	0.0067
545.19922	3.17963	136.81876	1.20626	0.00269
631.39941	3.75429	148.41875	1.20626	0.00131
975.0	5.40216	177.91875	1.20626	0.00269
7321.7998	31.47869	417.38751	1.20628	0.01061
3231.59961	16.10203	311.69376	1.20628	0.0027
5222.19922	24.15827	377.875	1.2125	0.00799
2713.79981	14.00768	290.0	1.2125	0.0027
1090.79981	6.17403	189.3125	1.2125	0.00132
3209.79981	15.95671	310.61249	1.2125	0.0054
2256.59961	12.12328	270.55624	1.2125	0.00399
2799.0	14.57557	296.84375	1.2125	0.004
813.7998	4.9702	169.24374	1.2125	0.0013
2692.39941	13.86498	290.0	1.2125	0.0027
541.7998	3.15702	136.15625	1.2125	0.0027
2738.19922	14.1703	292.71249	1.2125	0.0027
735.0	4.4449	160.85625	1.2125	0.00262
2111.19922	11.1541	259.20624	1.2125	0.00263
8645.39941	35.20565	431.11874	1.2125	0.00669
1573.39941	8.56979	224.40625	1.2125	0.00262
544.39941	3.1744	136.65625	1.2125	0.00132
726.0	4.38485	158.76875	1.21252	0.0027
1060.19922	5.97005	186.26875	1.21252	0.0027
1042.19922	5.85011	185.51875	1.21252	0.00399
2629.39941	13.44501	284.70001	1.21253	0.00409
2828.0	14.76887	298.38751	1.21253	0.004
2826.39941	14.75818	298.26251	1.21253	0.00409
1262.39941	7.3179	207.33749	1.25	0.0027
5987.39941	27.16654	395.27499	1.25	0.01061
2824.79981	14.74757	298.17499	1.25	0.004
772.0	4.69156	166.1125	1.25	0.00261
991.19922	5.51011	177.79375	1.25	0.00139
994.7998	5.53418	178.58749	1.25	0.00261
744.39941	4.50756	161.73125	1.25	0.00401
3190.19922	15.82608	309.27499	1.25	0.00401
636.59961	3.78897	148.96249	1.25	0.00131
2800.79981	14.58757	297.04999	1.25	0.0027
2088.19922	11.00079	257.74374	1.25	0.00392
4409.39941	20.66279	351.96249	1.25	0.01599
2288.59961	12.33656	272.05624	1.25	0.00269
1765.39941	9.84958	242.5125	1.25	0.00271
767.59961	4.66218	163.81876	1.25	0.0027
2725.19922	14.08365	291.25	1.25	0.00399
1284.19922	7.46321	209.75626	1.25	0.0027
1519.79981	8.21241	219.77499	1.25624	0.00269
3912.0	19.08306	339.65625	1.25626	0.00262
2253.19922	12.10059	269.80624	1.25626	0.004
786.0	4.78482	165.78125	1.25626	0.00131
3995.79981	19.64165	343.91251	1.25626	0.00531
9740.39941	39.81765	441.59375	1.25626	0.00669
819.0	5.00479	170.03751	1.25626	0.00139
748.39941	4.53424	161.9375	1.28751	0.00132
9589.99902	38.81511	441.42499	1.29373	0.00401
2823.19922	14.73689	298.04999	1.29373	0.00399
728.0	4.39823	160.0625	1.29375	0.00131
992.0	5.51549	178.08749	1.29375	0.00261
1079.79981	6.10076	188.1875	1.29375	0.00261
552.39941	3.22768	137.45	1.29375	0.0027
685.7998	4.11689	154.93124	1.29375	0.0014
1549.79981	8.41248	222.27499	1.29375	0.00261
1191.19922	6.84335	200.08125	1.29375	0.00261
1155.79981	6.6073	196.7	1.29375	0.00138
949.0	5.22885	175.5	1.29375	0.00269
1021.39941	5.71148	182.09375	1.29375	0.00261
1022.39941	5.71809	182.2625	1.29375	0.0027
1490.39941	8.0165	217.9375	1.29375	0.00269
1221.0	7.04195	202.375	1.29375	0.0013
797.59961	4.86217	167.825	1.29375	0.00132
780.7998	4.75022	165.65625	1.29375	0.00132
207.0	1.37861	97.18125	1.29376	0.00131
57.0	0.37868	66.6375	1.29376	0.00269
272.39941	1.81456	107.78125	1.29376	0.00262
147.59961	0.98263	85.875	1.29376	0.00271
2621.79981	13.39434	285.32501	1.29377	0.00271
755.59961	4.58222	162.94376	1.29377	0.00131
2727.0	14.09564	291.79376	1.29377	0.00401
771.0	4.68487	165.69376	1.29377	0.0013
3851.59961	18.68039	336.73126	1.29377	0.00662
14351.79981	52.71199	460.45001	1.29377	0.01331
995.7998	5.54078	178.75626	1.29377	0.00132
2712.19922	13.99699	290.0	1.29377	0.004
4485.19922	21.16802	356.13751	1.29377	0.00401
2715.39941	14.01829	290.29376	1.29377	0.00269
3211.79981	15.97009	310.81876	1.29377	0.004
7303.7998	31.35867	414.26251	1.29377	0.0053
692.59961	4.16226	155.22501	1.29377	0.00131
2154.59961	11.44336	261.20624	1.33124	0.00269
4679.19922	22.4612	365.5625	1.33124	0.00669
97.0	0.64533	75.60625	1.33125	0.00131
1564.0	8.50712	224.9875	1.33126	0.00132
711.39941	4.28759	159.01875	1.33126	0.00131
688.19922	4.13288	155.5125	1.33126	0.0027
931.0	5.10883	173.66251	1.33126	0.00139
496.19922	2.85309	130.39375	1.33126	0.00262
1005.79981	5.60745	180.38126	1.33126	0.00139
605.59961	3.58229	144.53751	1.33126	0.0014
709.39941	4.27421	157.85001	1.33126	0.00139
777.39941	4.72754	165.06876	1.33126	0.0013
4606.39941	21.97596	362.10001	1.33128	0.0053
3185.19922	15.79279	308.98126	1.33128	0.004
2231.0	11.95258	268.04999	1.3375	0.0027
621.39941	3.68763	147.46249	1.3375	0.00269
2245.59961	12.04992	268.71875	1.3375	0.00269
352.59961	2.34916	119.88125	1.3375	0.00263
1014.59961	5.66611	181.46875	1.3375	0.0014
2853.59961	14.93948	300.72501	1.3375	0.00409
2720.19922	14.05036	290.75	1.3375	0.00262
2710.59961	13.9863	289.875	1.3375	0.004
2652.19922	13.59702	285.78751	1.3375	0.004
4639.59961	22.19724	362.6875	1.3375	0.00539
807.39941	4.92753	167.86874	1.3375	0.00261
7226.59863	30.84406	414.84375	1.3375	0.01069
2743.39941	14.20497	293.58749	1.3375	0.00401
654.19922	3.9063	150.59375	1.3375	0.00262
696.19922	4.18625	155.05624	1.3375	0.00269
616.59961	3.65564	146.21249	1.3375	0.0027
1108.79981	6.29406	192.19376	1.33752	0.00261
2093.0	11.03278	256.66251	1.33752	0.00261
1127.19922	6.41669	192.69376	1.33752	0.0027
819.59961	5.00879	169.66251	1.33752	0.0027
2721.79981	14.06096	290.79376	1.33753	0.004
2723.59961	14.07296	291.04376	1.33753	0.00269
3235.79981	16.1301	312.70001	1.33753	0.00262
2797.39941	14.56489	296.75626	1.375	0.00269
765.39941	4.6475	164.9875	1.375	0.0027
510.0	2.94504	132.4375	1.375	0.00539
720.39941	4.34756	160.14375	1.375	0.00131
223.7998	1.49055	100.14375	1.375	0.0027
2852.0	14.92888	300.63751	1.375	0.00399
2811.39941	14.65823	297.34375	1.375	0.0027
1080.79981	6.10737	188.4375	1.375	0.00269
279.0	1.85854	109.03125	1.375	0.00531
3761.79981	18.08182	330.97501	1.375	0.004
2734.79981	14.14762	292.625	1.375	0.00399
2709.0	13.97562	289.83124	1.375	0.00399
254.39941	1.69454	105.10625	1.375	0.0027
1100.19922	6.2367	191.52499	1.375	0.00399
2717.0	14.02898	290.45624	1.375	0.00261
8653.59863	35.26031	431.61874	1.375	0.00532
1017.39941	5.6848	182.05	1.375	0.0027
2736.39941	14.15822	292.66876	1.375	0.00409
647.7998	3.86363	149.88126	1.375	0.00269
2707.39941	13.96501	289.83124	1.375	0.00401
4619.39941	22.06261	363.39374	1.375	0.008
2697.0	13.89566	289.16251	1.375	0.00399
593.39941	3.50102	144.28751	1.375	0.00261
968.59961	5.35948	176.16875	1.375	0.00132
2502.59961	12.59978	277.10626	1.375	0.00539
2569.39941	13.04512	280.77499	1.375	0.004
5107.7998	23.39569	370.78125	1.375	0.00401
953.7998	5.26084	174.91875	1.38124	0.0027
2247.19922	12.06061	269.38751	1.38126	0.0027
8157.59863	34.56163	429.07501	1.38126	0.01607
589.7998	3.47703	143.25	1.38126	0.00262
2010.59961	10.48349	250.69376	1.38126	0.00269
3208.39941	15.94741	310.65625	1.38126	0.00262
3119.79981	15.35683	306.27499	1.38126	0.004
2684.19922	13.81031	288.875	1.38126	0.0027
4473.59961	21.09075	355.50626	1.41251	0.008
2099.0	11.07276	257.49374	1.41873	0.00261
2682.59961	13.7997	288.70624	1.41873	0.00262
1089.79981	6.16742	188.8125	1.41875	0.00132
1271.39941	7.37787	208.21249	1.41875	0.0027
1047.19922	5.8834	184.7625	1.41875	0.0027
1048.19922	5.89009	184.8875	1.41875	0.0027
581.59961	3.42237	142.20625	1.41875	0.00401
714.59961	4.30888	159.0625	1.41875	0.0027
1087.79981	6.15404	189.0625	1.41875	0.0027
738.39941	4.4675	161.0625	1.41875	0.00139
612.19922	3.62635	145.16875	1.41875	0.00132
1218.79981	7.02726	202.45625	1.41875	0.0027
1539.19922	8.34182	222.4875	1.41875	0.00261
1940.19922	10.01416	246.8125	1.41875	0.004
1167.59961	6.68603	197.15625	1.41875	0.00132
958.7998	5.29413	175.25	1.41875	0.00139
1557.0	8.46045	223.8625	1.41875	0.00269
772.7998	4.69686	165.7375	1.41875	0.0027
1699.39941	9.40971	236.71249	1.41875	0.00261
179.0	1.192	92.38125	1.41875	0.00262
113.79981	0.75735	79.2375	1.41876	0.00262
2699.79981	13.91434	290.79376	1.41877	0.00262
753.7998	4.57023	162.19376	1.41877	0.00131
3293.79981	16.51669	316.16251	1.41877	0.00262
3759.79981	18.06852	330.38751	1.41877	0.00392
2627.79981	13.4344	284.65625	1.41877	0.004
2705.79981	13.95432	289.75	1.41877	0.0027
2251.79981	12.09129	269.59375	1.41877	0.00269
1433.19922	7.63521	213.35001	1.41877	0.0027
3181.79981	15.77011	308.85626	1.41877	0.00399
1434.59961	7.64452	213.97501	1.41877	0.0027
3117.79981	15.34345	306.0625	1.41877	0.00409
1203.79981	6.92731	201.16251	1.41877	0.00269
2504.59961	12.61316	277.48126	1.41877	0.004
9751.99902	39.895	442.34375	1.41877	0.0053
634.0	3.77159	148.38126	1.41877	0.00138
2653.79981	13.60771	286.03751	1.41877	0.00261
2250.19922	12.08052	269.46875	1.41877	0.00409
2567.79981	13.03443	280.39999	1.45624	0.00269
3999.59961	19.66694	343.65625	1.45624	0.0027
12762.39941	48.18663	457.73749	1.45624	0.00539
5910.19922	26.65193	392.51874	1.45624	0.00931
725.19922	4.37954	158.85001	1.45626	0.00139
1727.0	9.59362	238.38126	1.45626	0.0014
790.0	4.8115	167.4875	1.45626	0.00132
1580.19922	8.61507	225.1125	1.45626	0.0027
1498.59961	8.07117	217.76875	1.45626	0.00269
2052.59961	10.76343	254.8625	1.45626	0.004
3297.79981	16.54337	315.82501	1.45628	0.00401
1087.0	6.14874	189.10625	1.4625	0.00139
1081.79981	6.11406	188.5625	1.4625	0.00269
2210.19922	11.81395	265.88126	1.4625	0.0027
9530.20019	38.41652	442.21875	1.4625	0.01462
1166.39941	6.67795	196.99374	1.4625	0.0027
1078.79981	6.09407	188.3125	1.4625	0.00269
1491.59961	8.0245	218.23125	1.4625	0.00269
3764.0	18.09651	331.39374	1.4625	0.00262
2297.59961	12.39661	272.43124	1.4625	0.00261
1020.59961	5.70609	181.96875	1.4625	0.0014
1214.59961	6.99927	202.25	1.4625	0.0027
134.0	0.89198	83.2875	1.4625	0.00271
1093.59961	6.19272	189.98125	1.4625	0.00131
3766.39941	18.1125	331.89374	1.4625	0.0053
1436.0	7.6539	214.30624	1.4625	0.0013
3344.79981	16.85661	319.08124	1.4625	0.00401
967.59961	5.35279	176.08749	1.4625	0.0014
970.59961	5.37278	176.88126	1.46252	0.0027
535.7998	3.11704	135.56876	1.46252	0.0027
994.0	5.52879	178.55	1.46252	0.00132
1059.0	5.96205	186.39375	1.46252	0.0027
1056.79981	5.94737	185.85001	1.46252	0.00269
542.7998	3.16371	136.4875	1.46252	0.00132
3112.39941	15.30747	305.60626	1.46253	0.00409
733.0	4.43152	160.51875	1.5	0.00139
3080.79981	15.09688	304.51874	1.5	0.00662
2211.79981	11.82464	266.21249	1.5	0.0027
1480.79981	7.95253	217.64375	1.5	0.00261
4445.19922	20.90145	354.92499	1.5	0.00531
1216.59961	7.01265	202.08125	1.5	0.00263
953.0	5.25545	174.83125	1.5	0.0014
794.59961	4.84218	168.28125	1.5	0.0027
2117.39941	11.19539	258.28751	1.5	0.00269
1154.39941	6.59799	196.03125	1.5	0.00261
1171.19922	6.71002	198.825	1.5	0.00261
964.59961	5.3328	175.91875	1.5	0.0027
2086.39941	10.98871	256.86874	1.5	0.00271
1247.19922	7.21664	206.46249	1.5	0.00531
3853.39941	18.69239	336.23126	1.5	0.00669
687.0	4.12489	155.5125	1.5	0.0027
2642.79981	13.53436	285.65625	1.5	0.00399
1437.39941	7.6632	214.3875	1.5	0.00132
2781.39941	14.45824	295.29999	1.50623	0.0067
2244.0	12.03932	268.51251	1.50626	0.00262
3096.39941	15.20083	304.73126	1.50626	0.004
1124.0	6.3954	192.7375	1.50626	0.0013
1133.59961	6.45937	195.15625	1.50626	0.00261
2039.59961	10.67678	252.90625	1.50626	0.0027
1253.39941	7.25792	206.00626	1.50626	0.0027
2501.0	12.58918	277.02499	1.50626	0.00399
2029.59961	10.61012	251.7375	1.50626	0.00132
2641.19922	13.52367	285.49374	1.50626	0.00409
3206.59961	15.93542	310.86249	1.54373	0.00399
2655.39941	13.6184	286.24374	1.54373	0.00262
2650.59961	13.58633	285.74374	1.54373	0.004
5285.59961	24.58084	378.45624	1.54373	0.00409
2299.0	12.40592	272.68124	1.54373	0.00262
3116.0	15.33146	305.89374	1.54373	0.004
2061.59961	10.82341	254.3625	1.54375	0.00269
952.0	5.24884	174.95625	1.54375	0.00131
1009.0	5.62882	181.5125	1.54375	0.00123
1136.0	6.47536	195.1125	1.54375	0.00269
1117.59961	6.35272	192.23125	1.54375	0.00132
951.0	5.24215	175.04375	1.54375	0.0027
2000.39941	10.41552	250.35625	1.54375	0.004
1736.79981	9.65898	239.59375	1.54375	0.00132
2074.59961	10.91006	253.7375	1.54375	0.0027
1575.0	8.58048	224.7375	1.54375	0.00262
954.7998	5.26753	175.16875	1.54375	0.00261
1521.0	8.22049	219.98125	1.54375	0.00269
1254.39941	7.26462	205.91875	1.54375	0.00261
749.39941	4.54085	162.48125	1.54375	0.00139
1746.19922	9.72165	239.55	1.54375	0.00261
966.59961	5.34618	176.08749	1.54375	0.00131
2097.59961	11.06337	257.11874	1.54375	0.0027
809.7998	4.94352	168.95	1.54375	0.00261
1058.0	5.95536	186.01875	1.54375	0.0014
969.59961	5.36617	176.66875	1.54375	0.00131
965.59961	5.33949	176.0	1.54375	0.00132
1088.79981	6.16073	189.0625	1.54375	0.00261
945.19922	5.20348	174.625	1.54375	0.0027
957.7998	5.28752	175.125	1.54375	0.00131
1747.59961	9.73095	240.21875	1.54375	0.00269
120.79981	0.80402	80.65625	1.54376	0.00401
2690.59961	13.85298	289.28751	1.54377	0.00269
2283.59961	12.30327	272.26251	1.54377	0.00401
2661.79981	13.66107	286.95001	1.54377	0.004
2511.79981	12.66114	278.73126	1.54377	0.004
3148.39941	15.54744	307.73126	1.54377	0.004
2186.19922	11.65403	265.13126	1.54377	0.00392
2794.0	14.5422	296.59375	1.54377	0.00271
3146.59961	15.53544	307.60626	1.54377	0.00401
2514.59961	12.67983	279.23126	1.54377	0.004
2733.0	14.13562	292.5	1.54377	0.00401
2280.19922	12.28059	271.35001	1.54377	0.004
2753.19922	14.27025	293.79376	1.54377	0.004
2639.79981	13.51437	285.40625	1.54377	0.0027
1279.19922	7.42992	207.83749	1.58124	0.00261
2821.59961	14.7262	298.17499	1.58124	0.00399
1132.19922	6.45007	194.56876	1.58126	0.0013
1085.0	6.13536	189.14375	1.58126	0.00138
1653.0	9.10039	232.70625	1.58126	0.00261
2227.79981	11.93129	267.38126	1.58128	0.00269
15706.59863	58.59318	417.13751	1.58128	0.02131
2602.0	13.2624	282.56876	1.58128	0.00401
5122.59961	23.49434	373.70001	1.58128	0.00669
1489.19922	8.0085	217.85625	1.5875	0.00263
2208.79981	11.80465	265.63126	1.5875	0.00261
1034.0	5.79544	183.1375	1.5875	0.00269
1049.19922	5.8967	185.05624	1.5875	0.0027
1165.39941	6.67135	196.53125	1.5875	0.0013
594.39941	3.50763	144.125	1.5875	0.00401
2134.59961	11.31003	258.91251	1.5875	0.00401
2592.59961	13.19974	281.48749	1.5875	0.004
6490.39941	28.29564	404.03751	1.5875	0.0067
2704.0	13.94233	289.83124	1.5875	0.00399
2649.19922	13.57703	285.74374	1.5875	0.00269
2242.59961	12.02993	268.46875	1.5875	0.00269
2595.59961	13.21973	281.86249	1.5875	0.00269
1515.0	8.1805	219.60625	1.5875	0.00263
2658.59961	13.6397	286.53751	1.5875	0.0027
2660.19922	13.65038	286.66251	1.5875	0.0027
2674.79981	13.74764	289.08124	1.5875	0.0027
3114.19922	15.31946	305.8125	1.5875	0.00401
1446.39941	7.72317	215.10001	1.58752	0.0027
987.59961	5.48612	178.88126	1.58752	0.00139
993.0	5.5221	178.425	1.58752	0.00139
1596.79981	8.72571	227.78751	1.58752	0.00271
1213.59961	6.99258	202.33125	1.58752	0.00139
659.59961	3.94228	151.925	1.58752	0.00132
1283.0	7.45522	209.3	1.58752	0.00131
2718.59961	14.03967	290.66876	1.58753	0.0027
3139.59961	15.48877	307.23126	1.58753	0.004
1718.0	9.53365	237.50626	1.625	0.00271
1272.39941	7.38456	208.13126	1.625	0.0027
1215.59961	7.00596	202.28751	1.625	0.0027
2820.0	14.71559	298.04999	1.625	0.00261
1991.59961	10.35685	249.64999	1.625	0.00262
1624.79981	8.9124	228.825	1.625	0.00132
1168.59961	6.69264	197.575	1.625	0.0027
1050.19922	5.90339	185.1375	1.625	0.0027
1125.19922	6.40331	192.94376	1.625	0.00139
613.0	3.63165	145.58125	1.625	0.00132
1258.79981	7.29391	206.16875	1.625	0.00269
1969.39941	10.20884	248.23125	1.625	0.00261
586.19922	3.45296	143.16251	1.625	0.00139
2644.39941	13.54505	285.82501	1.625	0.004
1581.19922	8.62176	224.8625	1.625	0.00262
2600.39941	13.2518	282.36249	1.625	0.00262
1083.0	6.12206	189.1875	1.625	0.0013
1722.19922	9.56164	238.425	1.625	0.00261
741.0	4.48488	162.35625	1.625	0.00269
1169.79981	6.70064	197.95	1.625	0.0027
2156.0	11.45274	261.70624	1.625	0.00261
2626.19922	13.42372	284.65625	1.625	0.0027
3107.0	15.27149	305.39374	1.625	0.004
3088.59961	15.14885	305.8125	1.625	0.00401
1608.19922	8.80176	228.86874	1.625	0.00269
2083.19922	10.96742	255.99374	1.63124	0.00269
1582.59961	8.63106	225.325	1.63124	0.0014
1086.0	6.14205	189.23125	1.63124	0.0013
1600.79981	8.75239	227.11874	1.63124	0.0027
1115.39941	6.33804	191.81876	1.63126	0.00269
2795.59961	14.55289	296.71875	1.63126	0.004
2647.59961	13.56634	285.74374	1.63126	0.0027
3136.19922	15.46617	307.14999	1.63126	0.00262
1202.59961	6.91931	200.83125	1.63126	0.00132
3132.59961	15.44218	307.27499	1.63126	0.004
1004.59961	5.59945	179.96875	1.63126	0.00132
2173.0	11.56599	263.83749	1.63126	0.0027
1123.0	6.38871	192.44376	1.63126	0.00131
2804.39941	14.61156	297.76251	1.63126	0.00269
625.7998	3.717	148.25626	1.63126	0.00261
3368.79981	17.01661	321.08749	1.66873	0.00393
2153.0	11.43267	261.20624	1.66873	0.00269
8639.59863	35.16697	431.49374	1.66873	0.00931
2519.59961	12.71312	278.64999	1.66873	0.00399
6495.99902	28.33301	404.08124	1.66873	0.0053
4571.59961	21.74399	360.14374	1.66873	0.0053
6562.39941	28.77565	402.36874	1.66873	0.00532
3098.19922	15.21282	304.89374	1.66873	0.004
1562.59961	8.49774	224.7375	1.66875	0.00139
798.59961	4.86886	168.49374	1.66875	0.00132
1046.19922	5.87679	184.80624	1.66875	0.00262
1443.39941	7.70318	214.64375	1.66875	0.0027
640.59961	3.81565	149.08749	1.66875	0.0013
1533.59961	8.30444	221.48125	1.66875	0.00271
959.7998	5.30082	175.75	1.66875	0.00131
1164.19922	6.66327	196.40625	1.66875	0.0027
1244.19922	7.19665	205.29375	1.66875	0.00392
960.7998	5.30751	175.625	1.66875	0.00131
1128.39941	6.42469	193.39999	1.66875	0.0027
1626.0	8.9204	229.33125	1.66875	0.00269
758.0	4.59821	164.4875	1.66875	0.00263
1681.19922	9.2883	235.29375	1.66875	0.0014
734.19922	4.4396	160.8125	1.66875	0.0013
1463.19922	7.8352	215.01875	1.66875	0.0013
1256.59961	7.27922	205.96249	1.66875	0.0027
1206.39941	6.9446	201.70625	1.66875	0.0027
360.39941	2.40114	120.3	1.66876	0.0027
475.59961	2.71577	128.8125	1.66876	0.00269
2594.19922	13.21043	281.56876	1.66877	0.00261
3108.79981	15.28348	305.5625	1.66877	0.004
1121.79981	6.38071	192.44376	1.66877	0.0027
2248.59961	12.06991	269.46875	1.66877	0.004
2296.0	12.38593	272.51251	1.66877	0.00262
1536.19922	8.32182	221.31876	1.66877	0.00261
3134.39941	15.45417	307.10626	1.66877	0.00401
3110.59961	15.29548	305.6875	1.66877	0.00399
6410.59863	27.76373	400.20001	1.66877	0.00799
2195.59961	11.71669	265.29376	1.66877	0.00263
6577.99902	28.8796	403.78751	1.66877	0.00532
637.59961	3.79566	149.75626	1.66877	0.00131
4614.39941	22.02932	362.9375	1.66877	0.00662
3144.79981	15.52345	307.56876	1.67503	0.004
3429.79981	17.4232	324.58749	1.70624	0.00399
1576.39941	8.58978	224.9875	1.70626	0.00131
1504.59961	8.11115	218.14375	1.70626	0.00261
808.59961	4.93552	168.65625	1.70626	0.00261
634.7998	3.77697	148.66875	1.70626	0.00132
3998.0	19.65625	344.20001	1.70628	0.00401
2585.19922	13.15038	281.94376	1.70628	0.00269
3150.39941	15.56082	307.98126	1.70628	0.004
2142.59961	11.36339	260.83124	1.7125	0.00261
3100.0	15.22482	304.9375	1.7125	0.0027
3141.39941	15.50085	307.39999	1.7125	0.00391
1441.79981	7.69257	214.18124	1.7125	0.00263
1233.79981	7.12721	203.79375	1.7125	0.0027
1084.0	6.12867	189.3125	1.7125	0.00139
955.7998	5.27414	175.33749	1.7125	0.00139
1584.0	8.64045	226.11874	1.7125	0.00262
1759.79981	9.8123	241.55624	1.7125	0.00261
2224.59961	11.90999	266.88126	1.7125	0.00261
3137.79981	15.47678	307.14999	1.7125	0.004
3103.59961	15.2488	305.1875	1.7125	0.00271
1694.0	9.37357	235.58749	1.7125	0.00147
716.59961	4.32218	158.5625	1.7125	0.00131
2226.19922	11.9206	267.17499	1.7125	0.00269
2597.19922	13.23042	282.15625	1.7125	0.00261
721.0	4.35156	159.1875	1.7125	0.0027
1561.19922	8.48844	224.65625	1.7125	0.0013
2850.19922	14.91688	300.80624	1.7125	0.004
1077.0	6.08208	188.8125	1.7125	0.0013
2580.39941	13.11839	281.56876	1.7125	0.00271
963.7998	5.3275	176.29375	1.7125	0.00131
5283.7998	24.56885	379.0	1.7125	0.00399
9742.79981	39.83364	441.96875	1.7125	0.004
236.59961	1.5759	102.0625	1.71251	0.00269
1217.79981	7.02065	202.33125	1.71252	0.00132
2094.59961	11.04338	257.16251	1.71252	0.0027
1261.19922	7.3099	207.13126	1.71252	0.00139
1618.0	8.86703	229.70625	1.71252	0.00271
12755.39941	48.14005	457.70001	1.71253	0.00538
3935.0	19.23637	341.07501	1.71253	0.0093
2499.19922	12.57718	276.60626	1.71253	0.00261
3105.19922	15.25949	305.35626	1.71253	0.004
2657.0	13.629	286.45001	1.75	0.00271
1031.0	5.77545	183.71875	1.75	0.00269
775.39941	4.71416	165.19376	1.75	0.00139
2589.79981	13.18106	281.69376	1.75	0.00269
8636.39941	35.1456	431.32501	1.75	0.00668
793.7998	4.83679	168.325	1.75	0.0014
1054.79981	5.93407	185.68124	1.75	0.00139
1063.39941	5.99143	187.26875	1.75	0.00261
2582.0	13.12908	281.73749	1.75	0.00262
1633.19922	8.96837	230.66251	1.75	0.0027
1448.0	7.73386	215.55624	1.75	0.0027
961.7998	5.3142	176.04375	1.75	0.00131
379.39941	2.52777	123.675	1.75	0.00271
3143.0	15.51146	307.4375	1.75	0.00399
2561.0	12.98907	280.94376	1.75	0.00269
1116.59961	6.34603	192.14999	1.75	0.00132
3101.79981	15.23681	305.14374	1.75	0.004
2066.59961	10.85678	254.90625	1.75	0.00269
962.7998	5.32081	176.21249	1.75624	0.00139
1078.0	6.08869	188.73125	1.75624	0.00139
1673.39941	9.23633	234.08749	1.75624	0.00269
1257.59961	7.28591	205.96249	1.75624	0.00269
1118.79981	6.36072	192.44376	1.75626	0.00131
2116.0	11.18601	258.03751	1.75626	0.0027
4005.19922	19.70423	345.03751	1.75626	0.012
2646.0	13.55565	285.86874	1.75626	0.00409
1542.0	8.3605	221.81876	1.75626	0.00262
766.0	4.65149	163.8625	1.75626	0.00401
1485.19922	7.98182	217.1875	1.75626	0.0027
159.39941	1.06129	88.5875	1.75626	0.00269
244.59961	1.62926	103.4	1.75626	0.00132
1532.39941	8.29645	221.56876	1.75626	0.00131
2583.59961	13.13977	281.90625	1.75626	0.00269
2202.39941	11.76198	266.08749	1.79373	0.00262
2294.59961	12.37654	272.68124	1.79373	0.00269
2239.79981	12.01125	268.92499	1.79373	0.00269
2125.0	11.24606	259.45624	1.79373	0.00262
2792.19922	14.53029	296.67499	1.79373	0.00392
1075.79981	6.07408	189.01875	1.79375	0.00261
1067.19922	6.01672	187.5625	1.79375	0.00139
1547.19922	8.3951	222.1125	1.79375	0.0027
1140.59961	6.50604	195.40625	1.79375	0.00262
1251.19922	7.24324	206.71249	1.79375	0.0027
746.59961	4.52217	162.02499	1.79375	0.0027
1749.19922	9.74164	241.21875	1.79375	0.00269
1559.79981	8.47914	224.7375	1.79375	0.00262
750.39941	4.54754	163.14999	1.79375	0.00132
1055.79981	5.94076	185.89375	1.79375	0.0013
1144.0	6.52872	195.95	1.79375	0.00132
1029.0	5.76215	183.55624	1.79375	0.0013
1985.0	10.31287	248.73125	1.79375	0.00263
1137.19922	6.48335	195.4875	1.79375	0.0027
1235.19922	7.13659	204.79375	1.79375	0.00132
1757.19922	9.79492	241.34375	1.79375	0.0014
363.0	2.41844	121.38125	1.79375	0.00269
1762.59961	9.8309	242.0125	1.79375	0.00269
176.39941	1.17462	91.4625	1.79376	0.00131
1066.0	6.00872	187.10001	1.79377	0.00139
2194.0	11.706	265.04376	1.79377	0.00271
2229.39941	11.94197	267.71875	1.79377	0.00263
2151.59961	11.42337	261.125	1.79377	0.00269
2818.19922	14.70351	298.13751	1.79377	0.00271
1993.19922	10.36746	249.94376	1.79377	0.00409
2241.19922	12.02063	268.59375	1.79377	0.00269
2666.0	13.68898	288.41251	1.79377	0.00269
1483.79981	7.97252	216.72501	1.79377	0.00269
1260.0	7.3019	206.50626	1.79377	0.00139
1770.39941	9.88296	243.85001	1.79377	0.00261
2192.39941	11.69532	264.66876	1.79377	0.00269
1142.79981	6.52072	195.7	1.80001	0.00263
1120.79981	6.37402	192.6125	1.80001	0.00139
6684.2002	29.58751	408.875	1.83124	0.00939
4001.0	19.67632	343.40625	1.83124	0.00262
1513.59961	8.17112	219.8125	1.83126	0.00269
1579.0	8.60708	225.3625	1.83126	0.00269
1953.79981	10.10481	247.14375	1.83126	0.00269
1018.59961	5.69279	182.3	1.83126	0.00132
9674.79981	39.38039	442.00626	1.83128	0.01461
1013.59961	5.6595	181.5125	1.8375	0.00131
2141.0	11.3527	260.58124	1.8375	0.00261
561.39941	3.28774	139.36874	1.8375	0.00262
1670.0	9.21364	234.08749	1.8375	0.00271
1742.39941	9.69627	239.71875	1.8375	0.00269
1543.39941	8.3698	221.77499	1.8375	0.00262
799.7998	4.87686	169.325	1.8375	0.00131
3094.39941	15.18753	304.9375	1.8375	0.004
1679.59961	9.27769	235.04375	1.8375	0.00263
1210.19922	6.96998	202.75	1.8375	0.00132
668.59961	4.00225	152.96875	1.8375	0.00139
1209.0	6.9619	202.375	1.8375	0.00139
2150.19922	11.41398	260.95624	1.8375	0.00269
1012.39941	5.65142	181.3875	1.8375	0.0027
618.19922	3.66633	146.21249	1.8375	0.00262
2109.59961	11.14342	259.08124	1.8375	0.00261
3289.0	16.4847	314.99374	1.8375	0.00401
1667.0	9.19365	233.04375	1.8375	0.00271
3284.59961	16.45533	314.74374	1.8375	0.0027
1146.19922	6.54333	195.90625	1.8375	0.0027
2287.0	12.32595	271.93124	1.8375	0.00261
2566.19922	13.02374	280.11249	1.8375	0.00263
2598.79981	13.24111	282.36249	1.8375	0.00261
1709.19922	9.47499	238.34375	1.8375	0.00539
3180.19922	15.75942	309.06876	1.8375	0.00269
1207.59961	6.9526	202.08125	1.83752	0.00269
2017.0	10.52616	251.56876	1.83752	0.00261
1595.19922	8.71502	227.53751	1.83752	0.0027
588.59961	3.46904	143.08125	1.83752	0.00261
2007.79981	10.4648	249.94376	1.83752	0.00132
1528.39941	8.26977	220.81876	1.83752	0.0027
989.39941	5.49811	178.88126	1.83752	0.0027
1715.19922	9.51497	237.38126	1.83752	0.00269
1119.79981	6.36733	192.6125	1.83752	0.00139
1430.0	7.61392	213.22501	1.83752	0.00261
3364.79981	16.98993	319.91876	1.83753	0.00269
562.59961	3.29565	139.28125	1.875	0.00269
934.7998	5.1342	174.08125	1.875	0.00261
2605.59961	13.28639	283.61249	1.875	0.0027
2168.39941	11.53531	263.0	1.875	0.00269
669.39941	4.00764	152.425	1.875	0.0013
385.0	2.56514	124.84375	1.875	0.00132
1103.39941	6.25807	191.35625	1.875	0.00261
1577.59961	8.59778	225.15625	1.875	0.00262
929.7998	5.10083	173.33125	1.875	0.00269
1236.39941	7.14459	205.125	1.875	0.0027
1180.79981	6.77399	198.99374	1.875	0.00269
1692.59961	9.36435	235.29375	1.875	0.00131
1973.19922	10.23414	247.76875	1.875	0.00269
2200.59961	11.74998	265.46249	1.875	0.00131
763.19922	4.63289	165.06876	1.875	0.00262
1568.0	8.5338	225.2375	1.875	0.00132
2680.79981	13.78771	288.95624	1.88123	0.00391
1211.39941	6.97798	202.79375	1.88124	0.00131
2085.0	10.97941	256.74374	1.88124	0.00271
1494.59961	8.04449	218.35625	1.88124	0.0027
567.19922	3.32633	140.61874	1.88124	0.00269
936.0	5.1422	174.41875	1.88124	0.00261
1220.0	7.03525	202.91875	1.88124	0.0014
173.59961	1.15594	91.13125	1.88125	0.00138
1720.79981	9.55226	237.96875	1.88126	0.00269
2540.79981	12.85444	278.27499	1.88126	0.00269
2166.79981	11.52471	262.58749	1.88126	0.00261
5944.59961	26.88121	394.27499	1.88126	0.01061
2523.19922	12.73719	278.64999	1.88126	0.00262
2603.79981	13.2744	283.11249	1.91873	0.004
2171.39941	11.55538	263.33749	1.91873	0.00263
4573.7998	21.75868	360.39374	1.91873	0.00262
950.19922	5.23685	176.125	1.91875	0.00262
2036.59961	10.65671	251.89999	1.91875	0.00269
1616.39941	8.85643	228.7	1.91875	0.00262
1237.79981	7.15389	205.54375	1.91875	0.0014
1645.19922	9.04833	231.20625	1.91875	0.00271
1138.39941	6.49135	195.53125	1.91875	0.0027
1280.59961	7.43923	208.55	1.91875	0.00139
2073.59961	10.90345	254.45	1.91875	0.00262
1233.0	7.12191	204.375	1.91875	0.00139
1544.59961	8.3778	221.64999	1.91875	0.00269
1554.0	8.44046	222.89999	1.91875	0.00132
1647.0	9.06033	232.375	1.91875	0.00269
981.7998	5.44744	179.175	1.91875	0.00269
1990.0	10.34616	249.02499	1.91875	0.0014
1612.59961	8.83105	228.45	1.91875	0.0027
1428.59961	7.60453	212.43124	1.91875	0.00132
1755.79981	9.78562	241.09375	1.91875	0.00269
1503.39941	8.10315	217.89375	1.91875	0.00271
1212.39941	6.98467	202.625	1.91875	0.00261
710.19922	4.27959	158.1875	1.91875	0.00132
1938.0	9.99956	246.0625	1.91875	0.00261
745.59961	4.51556	162.14999	1.91875	0.00261
2005.0	10.44612	249.64999	1.91875	0.0013
1455.19922	7.78184	215.26875	1.91875	0.00131
1668.39941	9.20295	233.41875	1.91875	0.00279
188.59961	1.25597	93.84375	1.91876	0.00131
390.0	2.59843	125.2625	1.91876	0.00401
2169.79981	11.54469	263.125	1.91877	0.00271
2207.19922	11.79396	265.50626	1.91877	0.0027
1274.0	7.39525	209.25626	1.91877	0.0027
2508.0	12.63585	277.8125	1.91877	0.00131
2591.19922	13.19044	281.69376	1.91877	0.00261
1695.19922	9.38165	235.75626	1.91877	0.00269
2205.79981	11.78466	265.38126	1.91877	0.00261
2779.59961	14.44625	294.63126	1.91877	0.0027
2663.59961	13.67307	287.53751	1.91877	0.004
796.59961	4.85548	168.24374	1.92499	0.0027
1744.79981	9.71226	239.3875	1.92501	0.00269
1197.19922	6.88333	201.375	1.92501	0.00531
2524.79981	12.74779	278.69376	1.92503	0.00269
3363.0	16.97794	320.08124	1.95624	0.00401
1713.79981	9.50567	237.21249	1.95624	0.00261
928.7998	5.09414	173.16251	1.95626	0.00139
1644.0	9.04034	231.41251	1.95626	0.00269
815.7998	4.98342	170.45	1.95626	0.00277
1613.79981	8.83905	228.325	1.95626	0.00269
2126.59961	11.25667	260.08124	1.9625	0.00269
956.7998	5.28083	175.29375	1.9625	0.00131
1179.79981	6.7673	198.99374	1.9625	0.0014
2497.39941	12.56519	276.4375	1.9625	0.0027
1739.79981	9.67889	239.96875	1.9625	0.00269
15696.79981	58.52782	421.3125	1.9625	0.03069
2531.59961	12.79316	278.27499	1.9625	0.00132
1174.0	6.72863	199.11874	1.9625	0.00139
1496.0	8.05387	218.60625	1.9625	0.00132
1239.19922	7.16327	205.83749	1.9625	0.00132
2060.19922	10.8141	254.15625	1.9625	0.00263
1623.39941	8.9031	228.86874	1.9625	0.00261
1114.39941	6.33135	192.02499	1.9625	0.00139
2234.39941	11.97527	268.34375	1.9625	0.00269
1649.79981	9.07901	232.16875	1.9625	0.0027
1696.59961	9.39095	235.96249	1.9625	0.00138
1507.19922	8.12845	218.3125	1.9625	0.00138
1019.59961	5.69948	182.34375	1.9625	0.00131
1069.39941	6.03141	187.64375	1.96252	0.00399
2056.0	10.78612	253.3625	1.96252	0.0013
1602.19922	8.7617	227.78751	1.96252	0.0027
1558.39941	8.46975	224.4875	1.96252	0.00271
703.7998	4.23692	157.72501	1.96252	0.0027
1936.0	9.98617	245.39375	1.96252	0.00271
1252.39941	7.25123	206.50626	1.96252	0.00271
2015.39941	10.51547	250.9875	1.96252	0.00132
1068.19922	6.02341	187.76875	1.96252	0.00269
2494.0	12.5425	276.10626	1.96253	0.0027
8920.39941	37.03873	437.41876	1.96253	0.01069
2013.79981	10.50478	250.64999	2.0	0.00269
5201.7998	24.02225	374.24374	2.0	0.00401
2139.39941	11.34202	260.33124	2.0	0.00269
769.7998	4.67687	164.94376	2.0	0.0013
1451.19922	7.75516	214.3875	2.0	0.0027
2161.39941	11.48872	263.125	2.0	0.00392
4577.39941	21.78267	361.60001	2.0	0.0093
2035.19922	10.64741	251.69376	2.0	0.00269
1988.39941	10.33548	248.4375	2.0	0.00138
1177.59961	6.7527	199.36874	2.0	0.00261
2009.19922	10.47419	250.48125	2.0	0.0026
2058.79981	10.80472	253.8625	2.0	0.0027
2114.59961	11.17671	258.08124	2.00623	0.00269
1741.0	9.68697	239.7625	2.00624	0.00269
1255.59961	7.27261	206.08749	2.00624	0.00132
1761.19922	9.8216	241.80624	2.00624	0.00269
472.0	2.69178	127.64375	2.00625	0.00131
262.7998	1.75059	106.3625	2.00625	0.00131
2490.79981	12.52113	275.8125	2.00626	0.0027
926.39941	5.07823	173.125	2.00626	0.00131
1527.19922	8.26185	220.69376	2.00626	0.00131
1529.79981	8.27915	221.31876	2.00626	0.00262
2638.19922	13.50368	285.86874	2.00626	0.0027
2025.79981	10.58474	251.2375	2.00626	0.004
2670.39941	13.71835	287.99374	2.04373	0.0027
2495.79981	12.5545	276.26874	2.04373	0.00269
2123.39941	11.23537	259.08124	2.04373	0.00271
2096.0	11.05277	257.36874	2.04375	0.00261
2006.39941	10.4555	249.85625	2.04375	0.0013
756.7998	4.59022	164.4875	2.04375	0.00261
1188.19922	6.82327	199.86874	2.04375	0.00409
2065.19922	10.84748	254.7375	2.04375	0.00262
1053.79981	5.92737	185.80624	2.04375	0.00139
2018.59961	10.53677	251.77499	2.04375	0.00139
1531.19922	8.28845	221.39999	2.04375	0.0014
1758.39941	9.80291	241.3875	2.04375	0.0027
1281.79981	7.44722	208.925	2.04375	0.00132
1743.59961	9.70427	239.55	2.04375	0.0027
1183.19922	6.78998	199.325	2.04375	0.0027
666.0	3.98496	152.8875	2.04375	0.00261
1508.39941	8.13644	218.76875	2.04375	0.0027
1502.19922	8.09516	217.76875	2.04375	0.00131
1290.19922	7.50319	210.21875	2.04375	0.0027
204.39941	1.36123	96.80625	2.04376	0.0027
2190.79981	11.68463	264.50626	2.04377	0.00269
3819.39941	18.4658	333.6875	2.04377	0.00261
2027.79981	10.59813	250.81876	2.04377	0.0027
2165.19922	11.51402	262.5	2.04377	0.00261
2521.39941	12.72511	278.60626	2.04377	0.00269
1178.79981	6.76069	199.16251	2.04377	0.00131
2091.79981	11.0247	257.45001	2.04377	0.0027
976.19922	5.41015	178.50626	2.04377	0.00261
4658.7998	22.32526	364.98126	2.04377	0.0107
1453.79981	7.77253	214.97501	2.04377	0.0027
1269.19922	7.36326	207.50626	2.04377	0.00131
2539.19922	12.84375	277.9375	2.04377	0.00269
2564.59961	13.01306	279.98749	2.04999	0.0027
1425.79981	7.58585	211.93124	2.04999	0.0027
1486.59961	7.99113	217.73125	2.05001	0.00139
1487.79981	7.9992	217.73125	2.05001	0.00262
1051.39941	5.91138	185.76875	2.05001	0.00139
2003.39941	10.43543	249.56876	2.05001	0.00269
5832.7998	26.13602	390.30624	2.08124	0.008
1427.19922	7.59523	212.21875	2.08126	0.00132
1605.39941	8.78299	228.325	2.08126	0.00271
715.59961	4.31557	158.97501	2.08126	0.00132
2528.39941	12.77178	279.31876	2.0875	0.00271
5835.19922	26.15193	389.14374	2.0875	0.00408
1658.0	9.13368	233.0	2.0875	0.00269
2526.39941	12.75848	278.89999	2.0875	0.0027
2223.0	11.8993	266.96875	2.0875	0.00269
3939.19922	19.26436	339.98749	2.0875	0.00262
8181.59863	34.72163	427.73749	2.0875	0.00532
2492.39941	12.53181	276.01874	2.0875	0.0027
1751.0	9.75363	241.8875	2.0875	0.0027
1648.39941	9.06971	232.16875	2.0875	0.00261
318.39941	2.12119	114.58125	2.0875	0.00132
1665.59961	9.18435	232.91875	2.0875	0.00269
2274.19922	12.24061	271.93124	2.0875	0.00269
2586.59961	13.15976	282.28125	2.0875	0.004
2144.19922	11.37408	261.45624	2.0875	0.00262
1546.0	8.3871	222.02499	2.0875	0.00139
1175.19922	6.73662	199.61874	2.0875	0.00139
937.19922	5.1502	174.5	2.0875	0.00131
1141.79981	6.51403	195.7	2.0875	0.00132
292.19922	1.9465	111.24375	2.08751	0.0014
1139.59961	6.49935	195.3625	2.08752	0.00131
712.39941	4.2942	159.51875	2.08752	0.00538
1472.59961	7.89786	215.47501	2.08752	0.0027
705.0	4.24491	157.85001	2.08752	0.00261
1184.39941	6.79798	199.16251	2.08752	0.0027
1768.59961	9.87096	242.97501	2.08752	0.00262
3152.39941	15.57412	308.10626	2.08753	0.004
3156.59961	15.60211	309.02499	2.125	0.00399
1702.59961	9.43101	237.38126	2.125	0.00261
1537.79981	8.33243	221.89999	2.125	0.00132
1615.19922	8.84843	228.825	2.125	0.00132
1440.0	7.6805	214.80624	2.125	0.00409
1719.39941	9.54295	238.25626	2.125	0.00271
1194.0	6.86195	200.66251	2.125	0.00269
776.39941	4.72085	165.56876	2.125	0.0013
2068.39941	10.86869	255.65625	2.125	0.00269
783.7998	4.77013	167.6125	2.125	0.00139
4599.0	21.92668	361.64374	2.13123	0.00791
1728.59961	9.60431	239.7625	2.13124	0.00263
2081.79981	10.95812	255.99374	2.13124	0.00262
1156.39941	6.61129	196.2	2.13124	0.0027
1145.19922	6.53672	195.95	2.13124	0.00131
1763.79981	9.83898	242.10001	2.13126	0.00262
2038.0	10.66609	252.28125	2.13126	0.0027
2544.0	12.87581	279.02499	2.13126	0.00271
1691.19922	9.35496	235.13126	2.13126	0.00132
2033.79981	10.63811	251.6125	2.13126	0.0027
1622.19922	8.89502	229.16251	2.13126	0.00269
1452.59961	7.76454	214.60001	2.13126	0.0013
2845.19922	14.88359	300.55624	2.16873	0.00531
347.19922	2.31318	119.50625	2.16875	0.00124
1552.59961	8.43108	222.4875	2.16875	0.00131
2057.39941	10.79542	253.7375	2.16875	0.00269
927.59961	5.08623	173.45625	2.16875	0.00262
1176.39941	6.74462	199.49374	2.16875	0.00269
801.0	4.88485	169.49374	2.16875	0.004
1509.79981	8.14583	219.4375	2.16875	0.00269
947.59961	5.21955	175.375	2.16875	0.00261
795.7998	4.85018	168.74374	2.16875	0.0013
2506.19922	12.62385	277.35626	2.16877	0.00262
6568.99902	28.81963	403.03751	2.16877	0.00532
7305.99902	31.37335	414.76251	2.16877	0.00532
4442.59961	20.88407	354.00626	2.16877	0.004
1461.79981	7.82582	214.97501	2.16877	0.00269
297.59961	1.98256	111.7875	2.175	0.00262
1043.79981	5.86079	186.01875	2.17501	0.00132
4686.0	22.50656	366.06876	2.17503	0.00402
2545.79981	12.88781	279.06876	2.17503	0.00269
3946.19922	19.31095	341.70001	2.17503	0.0067
7859.99902	32.57792	423.4375	2.20624	0.01999
1944.39941	10.04223	246.10001	2.20626	0.00262
1952.0	10.0929	246.35001	2.20626	0.00262
305.0	2.03185	112.70625	2.2125	0.00131
1980.59961	10.2835	248.23125	2.2125	0.00269
2542.39941	12.86513	278.77499	2.2125	0.00261
1501.0	8.08716	218.10625	2.2125	0.00261
1468.19922	7.86849	216.0625	2.2125	0.00139
1957.19922	10.12749	246.85625	2.2125	0.00132
778.19922	4.73276	165.15625	2.2125	0.00139
2578.79981	13.10779	282.03125	2.2125	0.00399
4027.19922	19.85085	345.58124	2.2125	0.00278
1960.59961	10.15018	248.02499	2.2125	0.00269
1968.0	10.19954	248.35625	2.2125	0.00261
4491.19922	21.20808	354.96875	2.2125	0.00262
2588.19922	13.17037	281.90625	2.2125	0.00269
1661.79981	9.15898	233.79375	2.2125	0.00399
1505.79981	8.11914	218.4375	2.2125	0.00271
788.7998	4.8035	167.15625	2.2125	0.00132
12094.59863	46.69756	456.65625	2.2125	0.01737
312.0	2.07852	114.25	2.21251	0.0013
2537.59961	12.83314	277.98126	2.21253	0.00262
3234.0	16.11802	313.07501	2.21253	0.00408
3913.39941	19.09236	339.39999	2.25	0.00539
751.59961	4.55554	163.77499	2.25	0.0027
1052.59961	5.91946	186.05624	2.25	0.00132
924.39941	5.06485	173.08125	2.25	0.00401
2536.19922	12.82376	278.0625	2.25	0.00269
3695.79981	17.64187	329.09375	2.25	0.01338
3433.79981	17.44988	324.67499	2.25623	0.00408
1754.39941	9.77631	241.2625	2.25624	0.00261
1591.79981	8.69242	227.24374	2.25624	0.00269
1979.19922	10.27412	248.14999	2.25624	0.00138
1651.39941	9.0897	232.66875	2.25624	0.00269
1642.59961	9.03104	231.375	2.25626	0.00269
12758.79981	48.16273	458.32501	2.25626	0.0093
2533.0	12.80246	278.52499	2.25626	0.00269
933.7998	5.12751	174.25	2.25626	0.00139
1684.39941	9.30968	235.63126	2.25626	0.008
1716.59961	9.52427	237.71875	2.25626	0.0027
1725.39941	9.58302	238.34375	2.25626	0.00262
1548.59961	8.40448	222.19376	2.25626	0.00131
700.0	4.21154	156.22501	2.25626	0.00269
1698.0	9.40033	236.13126	2.25626	0.00139
7217.39941	30.78278	414.92499	2.29373	0.00662
2607.39941	13.29839	283.98749	2.29373	0.0027
5199.39941	24.00626	375.33124	2.29373	0.00799
1974.59961	10.24352	247.64375	2.29375	0.00262
1471.59961	7.89117	216.26875	2.29375	0.00132
1962.19922	10.16086	247.9375	2.29375	0.00132
1949.0	10.07283	246.14375	2.29375	0.00269
1982.0	10.2928	248.3125	2.29375	0.00271
1629.0	8.94039	230.20625	2.29375	0.00261
1094.39941	6.19802	189.39375	2.29375	0.0014
1654.59961	9.111	233.08125	2.29375	0.00269
938.19922	5.1568	174.625	2.29375	0.00271
2130.0	11.27935	260.375	2.29377	0.00269
2238.19922	12.00064	269.84375	2.29377	0.004
2550.79981	12.9211	279.31876	2.29377	0.00262
3329.0	16.75127	318.03751	2.29377	0.00269
3439.79981	17.48986	324.29999	2.29999	0.00401
2043.59961	10.70338	254.075	2.30001	0.00409
1126.19922	6.41	193.1125	2.30001	0.00132
3909.79981	19.06837	339.27499	2.33124	0.00261
1958.79981	10.13818	247.51875	2.33126	0.00269
1976.19922	10.25421	247.8125	2.3375	0.00261
2122.0	11.22607	259.16251	2.3375	0.00262
1738.59961	9.67098	240.7625	2.3375	0.00131
1511.39941	8.15652	219.60625	2.3375	0.0013
706.19922	4.25291	157.9375	2.3375	0.0027
1599.39941	8.74309	226.86874	2.3375	0.00269
2293.19922	12.36724	273.30624	2.3375	0.00269
2489.0	12.50913	275.89374	2.3375	0.0027
1998.79981	10.40483	250.77499	2.3375	0.00261
3815.59961	18.44042	334.01874	2.3375	0.00532
221.39941	1.47456	99.9375	2.33751	0.0014
1947.59961	10.06352	246.14375	2.33752	0.00132
7424.7998	32.16522	416.63751	2.33753	0.0054
1631.39941	8.95638	230.53751	2.375	0.00401
1966.39941	10.18885	248.3125	2.375	0.0027
325.0	2.16517	116.20625	2.375	0.00132
1182.0	6.78199	199.36874	2.375	0.00269
2530.0	12.78247	279.10626	2.375	0.004
3085.79981	15.13017	304.47501	2.375	0.0027
1977.59961	10.26351	247.9375	2.375	0.00269
737.39941	4.46089	161.23125	2.38124	0.00132
1593.59961	8.70442	227.61874	2.38124	0.00261
1983.59961	10.30349	248.73125	2.38124	0.00269
1465.0	7.84719	215.22501	2.38126	0.00261
5112.0	23.42368	371.82501	2.38126	0.00262
2148.79981	11.40468	261.375	2.38126	0.00269
6592.2002	28.97425	405.875	2.38126	0.01061
1678.0	9.26701	235.00626	2.38126	0.00261
3941.59961	19.28035	340.65625	2.38126	0.00401
2180.19922	11.61405	263.71249	2.41873	0.0013
1278.19922	7.42323	208.3	2.41875	0.00132
1225.79981	7.07393	204.0	2.41875	0.0027
1500.0	8.08047	218.5625	2.41875	0.0014
1026.39941	5.74477	182.84375	2.41875	0.0027
1424.39941	7.57655	212.0125	2.41875	0.0027
699.0	4.20493	156.60001	2.41877	0.00132
1609.39941	8.80975	228.91251	2.41877	0.00271
1946.0	10.05284	246.10001	2.41877	0.00269
2534.59961	12.81315	278.3125	2.41877	0.00261
9581.59863	38.75914	442.09375	2.42499	0.00399
1460.59961	7.81782	214.76875	2.42501	0.00139
986.59961	5.47951	179.71875	2.42501	0.0013
2747.19922	14.23027	293.75626	2.42503	0.00269
3154.19922	15.58611	308.06876	2.42503	0.00271
2549.19922	12.91049	279.60626	2.45628	0.00262
10437.99902	41.6921	448.89374	2.4625	0.012
728.7998	4.40353	159.98125	2.4625	0.0027
2077.39941	10.92874	256.24374	2.4625	0.00271
1037.59961	5.81943	185.05624	2.4625	0.0027
3166.59961	15.66877	307.81876	2.4625	0.00269
3128.59961	15.4155	306.77499	2.4625	0.00262
2102.59961	11.09675	257.49374	2.4625	0.00399
3083.39941	15.11417	304.1875	2.4625	0.004
3436.0	17.46456	325.04999	2.4625	0.00271
3239.59961	16.15539	314.28125	2.4625	0.00531
3291.19922	16.49931	315.11874	2.4625	0.00538
1187.0	6.81528	200.20625	2.46252	0.0014
2050.39941	10.74883	254.6125	2.46252	0.00393
632.39941	3.76098	149.25626	2.46252	0.00132
1459.39941	7.80991	214.64375	2.46252	0.0013
7914.59863	32.94191	423.73126	2.46253	0.00792
2181.39941	11.62196	263.29376	2.46253	0.004
3826.0	18.50978	335.14374	2.5	0.00401
7431.2002	32.20789	415.59375	2.5	0.00132
2809.59961	14.64624	297.13126	2.5	0.00269
7313.39941	31.42272	416.38751	2.5	0.00261
2107.0	11.12612	257.99374	2.5	0.00391
5842.19922	26.19868	388.80624	2.5	0.00393
1479.19922	7.94184	217.51875	2.5	0.0027
395.7998	2.63711	126.0125	2.5	0.00131
2547.39941	12.8985	279.10626	2.5	0.00261
2270.59961	12.21654	271.09375	2.5	0.00269
1032.0	5.78214	183.59375	2.5	0.00261
4489.19922	21.1947	354.17499	2.50623	0.00269
2134.0	11.30603	261.04376	2.50626	0.00132
3326.59961	16.73536	318.08124	2.54373	0.0053
2693.79981	13.87436	289.95624	2.54373	0.00401
1223.19922	7.05663	203.70625	2.54375	0.00261
2021.59961	10.55676	251.89999	2.54375	0.00269
1095.59961	6.20602	189.73125	2.54375	0.0067
1933.79981	9.97157	245.51875	2.54375	0.00531
1627.59961	8.931	230.28751	2.54377	0.00271
1147.39941	6.55132	195.31876	2.54377	0.00401
5289.7998	24.60891	379.71249	2.54999	0.00261
1249.19922	7.22994	207.175	2.55001	0.00669
8658.20019	35.29099	433.86874	2.58124	0.00931
3421.59961	17.36853	325.17499	2.5875	0.00531
1074.39941	6.0647	189.48125	2.5875	0.00269
1730.39941	9.61631	239.96875	2.5875	0.00269
3817.59961	18.45381	333.5625	2.5875	0.00262
241.0	1.60528	103.15	2.58751	0.0013
355.7998	2.37046	120.2125	2.58751	0.00269
759.7998	4.61021	164.3625	2.58752	0.00261
817.0	4.9915	170.78751	2.58752	0.00261
7426.7998	32.1786	415.63751	2.58753	0.00261
5840.19922	26.1853	388.80624	2.625	0.00269
5287.7998	24.59553	379.375	2.625	0.00262
4654.59961	22.29728	364.26874	2.625	0.004
2777.79981	14.43425	294.92499	2.63123	0.0027
11873.79981	45.22576	456.23749	2.63123	0.01999
386.7998	2.57714	125.43125	2.63126	0.00131
5114.19922	23.43836	372.57501	2.63126	0.00662
1134.79981	6.46736	195.15625	2.63126	0.00132
1106.0	6.27537	192.44376	2.63126	0.00132
1064.79981	6.00073	187.6875	2.63126	0.0027
691.59961	4.15557	155.97501	2.63126	0.0013
2179.0	11.60597	265.21249	2.66873	0.0027
5836.59961	26.16131	388.05624	2.66873	0.00401
2787.39941	14.49822	296.79999	2.66873	0.00271
2184.39941	11.64195	264.71249	2.66873	0.0014
3282.79981	16.44334	314.86874	2.66873	0.0027
1172.59961	6.71932	199.325	2.66875	0.00132
678.7998	4.07022	155.30624	2.66875	0.0027
1950.59961	10.08351	246.6875	2.66875	0.0027
373.19922	2.48641	123.46875	2.66876	0.00139
1205.0	6.9353	201.66251	2.66877	0.0027
3821.39941	18.4791	334.3125	2.66877	0.00131
2609.19922	13.31038	284.07501	2.66877	0.0027
6687.7998	29.6115	408.66876	2.66877	0.01339
7314.99902	31.43333	414.96875	2.66877	0.00538
661.59961	3.95566	152.6375	2.7125	0.00132
684.39941	4.10759	155.8875	2.7125	0.004
742.19922	4.49288	162.98125	2.7125	0.00269
2262.0	12.15926	271.05624	2.7125	0.00131
1659.59961	9.14437	233.66875	2.7125	0.00531
540.7998	3.15033	136.8625	2.71252	0.00271
2070.19922	10.88077	256.20001	2.71252	0.00269
2552.39941	12.93179	279.48126	2.71253	0.00131
2614.0	13.34237	284.57501	2.71253	0.00538
630.19922	3.74629	148.41875	2.75	0.00131
1240.19922	7.16997	205.5	2.75	0.00531
5206.0	24.05024	374.95624	2.75623	0.00409
9429.39941	37.7446	440.92499	2.75623	0.01462
1603.79981	8.77238	228.11874	2.75624	0.0014
1674.79981	9.24563	234.29375	2.75624	0.00269
8187.2002	34.759	427.28125	2.75626	0.00263
1458.0	7.80052	215.22501	2.75626	0.0027
611.19922	3.61966	146.41875	2.79375	0.00261
1535.0	8.31383	222.06876	2.79377	0.00262
3204.0	15.91804	311.28125	2.79999	0.0067
1039.0	5.82873	184.85001	2.80001	0.004
1475.0	7.91386	216.0625	2.80001	0.00399
3846.19922	18.64441	335.14374	2.83124	0.004
8651.20019	35.24432	432.49374	2.8375	0.004
4604.0	21.95997	361.76874	2.8375	0.00401
2265.0	12.17925	269.59375	2.8375	0.004
1444.79981	7.71256	215.05624	2.8375	0.00263
3333.79981	16.78334	318.91251	2.8375	0.00262
5754.19922	25.61202	388.22501	2.8375	0.00669
3366.59961	17.00193	320.96249	2.8375	0.00399
2120.39941	11.21538	259.24374	2.8375	0.00132
8191.59863	34.7883	427.81876	2.875	0.0027
4333.59961	20.15748	350.5	2.875	0.00808
652.39941	3.89431	151.8	2.88126	0.00269
4460.7998	21.0054	356.46875	2.88126	0.01469
2731.19922	14.12363	292.79376	2.88126	0.00269
2020.0	10.54615	251.6125	2.88126	0.00131
5109.7998	23.40899	371.40625	2.88126	0.00262
2147.19922	11.39407	261.66876	2.88126	0.00262
4608.59961	21.99065	362.14374	2.91873	0.00531
2701.79981	13.92764	291.125	2.91877	0.00531
2290.79981	12.35125	273.60001	2.91877	0.00669
3424.59961	17.3886	325.50626	2.91877	0.0053
5203.7998	24.03563	374.83124	2.92499	0.004
2751.0	14.25565	294.50626	2.9625	0.00399
2272.0	12.22592	270.59375	2.9625	0.00139
1231.59961	7.11261	205.58749	2.9625	0.0027
2745.19922	14.21697	293.96249	2.9625	0.004
3416.19922	17.33254	324.25626	2.9625	0.00539
2128.39941	11.26866	260.53751	2.9625	0.00139
15178.79981	55.07494	464.08124	2.9625	0.016
1656.0	9.12038	232.83125	2.96252	0.00261
281.0	1.87184	109.4875	3.0	0.0014
2276.39941	12.25521	272.89374	3.00623	0.00269
2815.59961	14.68622	298.84375	3.00626	0.00669
3335.79981	16.79664	319.125	3.00626	0.00262
7419.99902	32.13324	419.22501	3.00626	0.01199
2558.79981	12.97446	280.14999	3.04373	0.00269
2090.0	11.01278	257.74374	3.04375	0.00132
3158.59961	15.6154	309.11249	3.04999	0.00401
2783.79981	14.47424	296.09375	3.04999	0.00269
2041.59961	10.69008	254.2	3.05001	0.00409
8189.39941	34.77361	427.61249	3.0875	0.0027
3331.19922	16.76596	319.125	3.0875	0.00669
695.19922	4.17956	156.30624	3.0875	0.0013
4991.59961	22.62112	369.11249	3.0875	0.0093
1634.79981	8.97906	231.28751	3.08752	0.004
3286.59961	16.46863	315.32501	3.08753	0.00538
1682.59961	9.29768	235.54375	3.125	0.00271
1996.59961	10.39014	250.81876	3.13126	0.0027
4370.39941	20.40283	352.63126	3.13126	0.00669
3341.79981	16.83662	320.33124	3.16873	0.00939
3432.0	17.43788	325.42499	3.16873	0.0027
1585.59961	8.65105	226.90625	3.16875	0.00271
3925.19922	19.17101	341.32501	3.17503	0.00662
3438.39941	17.48055	325.88126	3.2125	0.00263
1620.79981	8.88572	229.99374	3.2125	0.0027
9745.20019	39.84964	442.84375	3.2125	0.004
5301.39941	24.68618	381.71249	3.2125	0.012
14336.99902	52.61334	463.45624	3.2125	0.01868
1707.39941	9.46299	238.175	3.21252	0.00132
2258.59961	12.13658	271.09375	3.25	0.00399
2672.19922	13.73034	288.36874	3.25	0.00132
1671.59961	9.22433	234.41875	3.25624	0.00132
1598.0	8.73371	227.24374	3.25624	0.00139
724.19922	4.37285	159.98125	3.25624	0.0014
4033.59961	19.89361	347.0	3.25626	0.00662
2553.79981	12.94109	279.27499	3.25626	0.00269
2775.39941	14.41826	295.88126	3.25626	0.0067
6389.2002	27.6211	401.07501	3.25626	0.00932
2555.59961	12.95308	279.44376	3.25626	0.00271
8045.7998	33.81643	426.69376	3.29377	0.01061
2509.79981	12.64784	278.60626	3.29377	0.00261
3337.39941	16.80732	318.5	3.29999	0.00531
3826.79981	18.51508	332.8125	3.29999	0.00531
1192.59961	6.85265	201.20625	3.30001	0.0027
1640.79981	9.01904	232.0	3.30001	0.004
2636.39941	13.49168	286.41251	3.30003	0.0027
2487.0	12.49583	276.23126	3.30003	0.00269
4448.59961	20.92405	355.76251	3.30003	0.004
2285.39941	12.31527	272.60001	3.3375	0.00262
2263.59961	12.16995	270.84375	3.3375	0.00262
658.19922	3.93298	152.7625	3.3375	0.00261
2101.0	11.08606	258.49374	3.3375	0.00269
792.59961	4.82888	169.11874	3.3375	0.00131
1700.79981	9.41901	237.425	3.33752	0.00263
1723.79981	9.57225	238.75626	3.33752	0.00269
1565.19922	8.51512	225.2375	3.33752	0.0027
752.7998	4.56354	163.56876	3.33752	0.00131
1010.59961	5.63943	182.59375	3.41875	0.00669
1092.0	6.18203	190.3125	3.41875	0.0027
7308.39941	31.38934	415.21875	3.41877	0.00271
4503.0	21.28674	358.01251	3.41877	0.0053
4440.0	20.86678	354.34375	3.42499	0.00531
1497.19922	8.06179	218.73125	3.42501	0.00269
1551.19922	8.42178	223.40625	3.42501	0.00262
1704.39941	9.443	238.21875	3.42501	0.00263
5927.59961	26.76788	392.10626	3.42503	0.00269
7115.99902	30.10685	413.63126	3.4625	0.012
736.19922	4.45289	161.89999	3.4625	0.00132
13503.79981	50.11037	461.66251	3.4625	0.01868
1771.39941	9.88956	243.0125	3.4625	0.00271
3427.39941	17.4072	325.63126	3.5	0.00662
5166.39941	23.78628	375.95624	3.50623	0.00661
2032.19922	10.62742	252.40625	3.50626	0.00269
8983.79981	37.46139	438.29376	3.50626	0.0106
2001.79981	10.42482	250.19376	3.50626	0.00261
2063.59961	10.83679	255.53125	3.50626	0.00261
8184.59863	34.74162	428.15625	3.50626	0.0054
7310.59863	31.40403	415.17499	3.54373	0.00262
2576.79981	13.09449	282.48749	3.54373	0.0026
3823.59961	18.4937	335.14374	3.54373	0.004
1102.0	6.24869	192.23125	3.54375	0.0027
708.39941	4.26751	158.85001	3.54377	0.0014
3164.39941	15.65408	306.98126	3.54377	0.00269
1766.79981	9.85897	243.22501	3.55001	0.00262
932.59961	5.11952	175.125	3.5875	0.00131
806.19922	4.91945	169.7	3.5875	0.00269
2174.79981	11.57799	264.29376	3.58753	0.00139
6492.7998	28.31163	403.58124	3.59375	0.004
2132.0	11.29273	261.41876	3.59375	0.00261
2045.59961	10.71676	254.075	3.59375	0.0027
7449.59863	32.33053	420.76874	3.63123	0.00669
2232.59961	11.96327	268.79999	3.66873	0.0027
7433.59863	32.22389	417.51251	3.66877	0.00401
1493.0	8.0338	218.89999	3.67499	0.00262
1456.59961	7.79122	216.01875	3.67501	0.00261
3841.39941	18.61242	333.73126	3.67503	0.00931
2848.0	14.90219	301.60001	3.7125	0.00401
4009.39941	19.7323	345.66251	3.7125	0.00401
812.59961	4.96212	170.7	3.7125	0.0027
3172.79981	15.71005	309.77499	3.7125	0.0027
2217.19922	11.86063	268.04999	3.7125	0.00399
1572.0	8.5604	226.45	3.7125	0.00271
1045.19922	5.8701	186.22501	3.71252	0.00131
1470.0	7.88057	217.26875	3.71252	0.00262
8647.99902	35.22295	431.57501	3.71253	0.004
1153.0	6.58869	196.99374	3.71875	0.00262
1752.79981	9.76563	242.2625	3.75624	0.00131
3757.39941	18.05253	331.35001	3.75626	0.00391
4651.7998	22.27859	365.0625	3.75626	0.00669
3836.79981	18.58174	333.89374	3.79373	0.00401
784.7998	4.77682	167.4875	3.79375	0.0027
1422.59961	7.56455	212.5125	3.79375	0.0027
3242.59961	16.17538	314.36874	3.79999	0.00669
1431.59961	7.62453	213.80624	3.79999	0.00139
7342.39941	31.61601	418.51874	3.79999	0.00793
12671.99902	47.58415	458.95001	3.80003	0.01192
1735.0	9.64699	240.5125	3.8375	0.00261
1288.59961	7.49259	210.8875	3.84375	0.00261
1611.19922	8.82175	229.74374	3.88124	0.00269
3295.59961	16.52868	316.91251	3.88126	0.004
2012.19922	10.49418	251.44376	3.88126	0.00131
2163.39941	11.50202	263.375	3.88126	0.00269
9747.79981	39.86693	442.92499	3.91873	0.00539
1277.0	7.41524	209.88126	3.91877	0.00131
2204.19922	11.77397	266.50626	3.9625	0.00139
2198.79981	11.73799	265.96249	4.00626	0.00131
9759.20019	39.94298	444.80624	4.00626	0.00799
1267.79981	7.35388	208.46249	4.04375	0.00139
5689.39941	25.18015	386.59375	4.04377	0.00799
1964.39941	10.17547	249.02499	4.04999	0.00269
3168.79981	15.68345	308.60626	4.08753	0.00531
3280.39941	16.42734	315.53751	4.09375	0.004
1712.19922	9.49498	238.46875	4.13126	0.00269
3091.39941	15.16746	306.0625	4.13126	0.00808
2678.79981	13.77432	290.16876	4.13126	0.00401
11015.59863	42.69938	452.23126	4.13126	0.01069
2278.19922	12.26721	272.30624	4.13126	0.004
4024.79981	19.83494	345.91251	4.13126	0.00262
5925.19922	26.75189	392.48126	4.13126	0.004
4451.19922	20.94143	356.01251	4.17503	0.00401
2188.79981	11.67133	266.00626	4.17503	0.00531
1955.39941	10.11558	247.76875	4.21252	0.00122
7428.7998	32.1919	415.88751	4.21253	0.00271
1163.0	6.65535	197.99374	4.21875	0.00131
3839.19922	18.59774	334.14374	4.25623	0.00399
10209.59863	40.16964	445.88751	4.25626	0.01331
4681.59961	22.47719	365.85626	4.29377	0.0027
2023.39941	10.56875	252.31876	4.29377	0.004
1986.59961	10.32348	249.14999	4.38124	0.0014
2054.19922	10.77404	254.9875	4.38126	0.0027
2611.79981	13.32776	285.24374	4.38126	0.00262
1540.59961	8.35112	222.89999	4.41875	0.00131
2623.79981	13.40772	285.86874	4.4625	0.00401
1201.19922	6.91001	202.25	4.46875	0.00122
1525.59961	8.25116	222.27499	4.50624	0.00261
3413.0	17.31125	323.83749	4.50626	0.0053
1664.0	9.17366	234.5	4.50626	0.00269
2790.0	14.5156	297.88751	4.50626	0.00271
9584.59863	38.77913	443.34375	4.50626	0.0027
6500.2002	28.36099	404.28751	4.50626	0.00661
1689.39941	9.34297	236.46249	4.54375	0.0027
4492.7998	21.21869	355.04999	4.54999	0.00539
2517.39941	12.69843	279.64999	4.54999	0.00269
1449.59961	7.74455	215.80624	4.5875	0.00261
3177.79981	15.74343	310.69376	4.5875	0.00399
8193.59863	34.80159	428.06876	4.63126	0.00532
2268.39941	12.20193	272.05624	4.63126	0.00269
5291.59961	24.6209	379.66876	4.63126	0.00531
1113.0	6.32204	193.69376	4.63126	0.0027
2562.79981	13.00114	281.44376	4.63126	0.00262
2071.79981	10.89146	256.03125	4.63126	0.00399
5851.39941	26.25996	392.10626	4.63752	0.0107
8632.59863	35.1203	432.49374	4.67499	0.00801
1518.39941	8.20311	221.7375	4.67501	0.00138
9659.20019	39.27636	444.63751	4.71875	0.00939
1942.19922	10.02754	247.23125	4.71875	0.004
4487.39941	21.18271	356.79999	4.75623	0.00401
2806.79981	14.62755	298.54999	4.79373	0.0067
943.7998	5.19417	176.29375	4.80001	0.0027
1482.19922	7.96183	218.39375	4.83752	0.0027
5211.39941	24.08622	374.91251	4.88126	0.00408
2079.79981	10.94474	257.45001	4.88126	0.0027
2112.79981	11.16471	259.53751	4.88126	0.0014
5930.0	26.78387	392.39374	4.92499	0.00799
3360.39941	16.96064	321.54376	4.92503	0.0053
6738.39941	29.94881	410.25626	5.00626	-0.0089
5208.19922	24.06492	375.36874	5.04373	0.008
9587.79981	38.80042	443.88751	5.05003	0.004
2668.0	13.70236	288.70624	5.09375	0.00269
13868.79981	52.54341	459.32501	5.13126	-0.00961
5343.19922	24.96482	382.08749	5.13126	-0.00702
2221.0	11.88592	268.51251	5.13752	0.00269
2137.59961	11.33002	262.08124	5.16873	0.0027
12218.20019	47.52148	455.02499	5.17499	-0.00888
1971.39941	10.22214	249.44376	5.21875	0.0027
8229.20019	35.03895	430.11874	5.21875	-0.00815
4453.7998	20.95873	355.79999	5.25623	0.00401
14698.79981	55.02484	460.20001	5.25626	-0.01077
13041.59863	50.04763	457.53125	5.29999	-0.01077
4688.19922	22.52125	365.35626	5.30003	-0.00766
2299.79981	12.41032	271.63751	5.38126	-0.01069
11377.39941	45.11112	453.39999	5.42499	-0.0088
1774.0	9.90678	243.43124	5.42499	-0.01076
9783.99902	40.10829	441.63126	5.42503	-0.01027
5060.39941	23.07968	371.86874	5.46875	0.00401
3447.19922	17.53898	326.96875	5.50626	-0.00938
2864.0	15.00884	301.63751	5.50626	-0.0035
10578.20019	42.62651	447.80624	5.54999	-0.01068
822.59961	5.02878	170.99374	5.54999	-0.00612
3229.0	16.08473	313.28125	5.5875	0.0027
6029.59961	27.4478	396.77499	5.63126	-0.00955
9011.20019	37.64399	436.875	5.63126	-0.01028
7471.59863	32.47715	419.26874	5.67499	-0.00954
4059.39941	20.06553	346.33124	5.71875	-0.00882
398.19922	2.65294	125.0125	5.8	-0.00938
1291.79981	7.51299	208.84375	5.80001	-0.01069
3162.79981	15.64347	309.89999	6.00626	0.00132
3834.79981	18.56844	336.35626	6.09375	0.00132
